onset	duration	stim	cond	RT	resp	cresp	acc
4.044	0.714130986	DONKEY	lure	n/a	n/a	n/a	1
4.758	0.533382654	SKYLINE	lure	n/a	n/a	n/a	1
5.292	0.53327073	PRANKSTER	lure	n/a	n/a	n/a	1
5.825	0.350047715	PAUPER	lure	n/a	n/a	n/a	1
6.175	0.416601599	REVERIE	lure	n/a	n/a	n/a	1
6.592	0.649991677	RIFT	lure	n/a	n/a	n/a	1
7.242	0.633327686	MEDIATION	lure	n/a	n/a	n/a	1
7.875	2.016639908	SKETCH	long	n/a	n/a	n/a	1
9.892	0.616660492	GYPSY	lure	n/a	n/a	n/a	1
10.508	0.666654612	BRISKET	lure	n/a	n/a	n/a	1
11.175	0.599992771	MOTORBIKE	lure	n/a	n/a	n/a	1
11.775	0.566659588	RESHUFFLE	lure	n/a	n/a	n/a	1
12.342	0.566652361	LOLLIPOP	lure	n/a	n/a	n/a	1
12.908	0.349996099	GOOBER	lure	n/a	n/a	n/a	1
13.258	0.483330579	SHOWCASE	lure	n/a	n/a	n/a	1
13.742	0.749988223	HATBAND	lure	n/a	n/a	n/a	1
14.492	0.683322203	SURVIVAL	lure	n/a	n/a	n/a	1
15.175	0.716717463	HERON	lure	n/a	n/a	n/a	1
15.892	0.72114026	CATTLE	lure	n/a	n/a	n/a	1
16.613	0.662111718	NICKEL	short	n/a	n/a	n/a	1
17.275	0.61666257	SOJOURNER	lure	n/a	n/a	n/a	1
17.891	0.350036425	NAVIGATOR	lure	n/a	n/a	n/a	1
18.242	0.566612993	DISRESPECT	lure	n/a	n/a	n/a	1
18.808	0.366662002	BOMBER	lure	n/a	n/a	n/a	1
19.175	0.483328202	BEESWAX	lure	n/a	n/a	n/a	1
19.658	0.516704582	BOROUGH	lure	n/a	n/a	n/a	1
20.175	0.616711736	EXCITEMENT	lure	n/a	n/a	n/a	1
20.792	0.699889834	GIBBERISH	lure	n/a	n/a	n/a	1
21.491	0.549989075	PROXY	lure	n/a	n/a	n/a	1
22.041	0.416663587	FADEOUT	lure	n/a	n/a	n/a	1
22.458	0.366660566	LINEN	lure	n/a	n/a	n/a	1
22.825	0.416708672	STRINGENCY	lure	n/a	n/a	n/a	1
23.241	0.566612518	AQUARIUM	lure	n/a	n/a	n/a	1
23.808	0.433326407	MEDIUM	lure	n/a	n/a	n/a	1
24.241	0.636696743	HORSESHOE	lure	n/a	n/a	n/a	1
24.878	0.61356592	SOAP	short	n/a	n/a	n/a	1
25.492	0.616488929	STORAGE	lure	n/a	n/a	n/a	1
26.108	0.333216872	POVERTY	lure	n/a	n/a	n/a	1
26.441	0.483372523	BOATLOAD	lure	n/a	n/a	n/a	1
26.925	0.516675477	ANTECEDENT	lure	n/a	n/a	n/a	1
27.441	0.349983247	WAIVER	lure	n/a	n/a	n/a	1
27.791	0.616694219	SATELLITE	lure	n/a	n/a	n/a	1
28.408	0.766569424	CUPID	lure	n/a	n/a	n/a	1
29.175	0.716740693	VIDEOTAPE	lure	n/a	n/a	n/a	1
29.891	0.633287613	METEOR	lure	n/a	n/a	n/a	1
30.525	0.416613446	FEROCITY	lure	n/a	n/a	n/a	1
30.941	0.549988316	MANDARIN	lure	n/a	n/a	n/a	1
31.491	0.349998897	REDNECK	lure	n/a	n/a	n/a	1
31.841	0.568614777	TUMMY	lure	n/a	n/a	n/a	1
32.41	0.764700002	RITE	lure	n/a	n/a	n/a	1
33.175	2.016685767	TIRE	long	n/a	n/a	n/a	1
35.191	0.616611452	BALM	lure	n/a	n/a	n/a	1
35.808	0.316780648	BRANDY	lure	n/a	n/a	n/a	1
36.125	0.566535011	DELIVERY	lure	n/a	n/a	n/a	1
36.691	0.366665666	SOLICITOR	lure	n/a	n/a	n/a	1
37.058	0.533327377	WORKBASKET	lure	n/a	n/a	n/a	1
37.591	0.499992314	SEIZURE	lure	n/a	n/a	n/a	1
38.091	0.566657769	MONGREL	lure	n/a	n/a	n/a	1
38.658	0.566658551	PATHOLOGY	lure	n/a	n/a	n/a	1
39.225	0.683322231	RACCOON	lure	n/a	n/a	n/a	1
39.908	0.433329498	TROUT	lure	n/a	n/a	n/a	1
40.341	0.349994619	HAIR	lure	n/a	n/a	n/a	1
40.691	0.587580551	IMMERSION	lure	n/a	n/a	n/a	1
41.279	0.613605238	TIMBER	short	n/a	n/a	n/a	1
41.892	0.648785802	HISTORY	lure	n/a	n/a	n/a	1
42.541	0.733324694	LONGHORN	lure	n/a	n/a	n/a	1
43.274	0.416659662	SEAWEED	lure	n/a	n/a	n/a	1
43.691	0.599995979	FIREPOWER	lure	n/a	n/a	n/a	1
44.291	0.499990385	TYPOLOGY	lure	n/a	n/a	n/a	1
44.791	0.483386728	POSSE	lure	n/a	n/a	n/a	1
45.274	0.316601199	BASEMENT	lure	n/a	n/a	n/a	1
45.591	0.649987464	UNDERLAY	lure	n/a	n/a	n/a	1
46.241	0.549996403	RAG	lure	n/a	n/a	n/a	1
46.791	0.683327569	SERGE	lure	n/a	n/a	n/a	1
47.474	0.367571548	DURATION	lure	n/a	n/a	n/a	1
47.842	0.665743366	MOTHER	lure	n/a	n/a	n/a	1
48.508	0.616661284	NODE	lure	n/a	n/a	n/a	1
49.124	0.633322111	POSTULATE	lure	n/a	n/a	n/a	1
49.758	0.616657971	LENS	short	n/a	n/a	n/a	1
50.374	0.399994487	EVILDOER	lure	n/a	n/a	n/a	1
50.774	0.649991798	PARABOLA	lure	n/a	n/a	n/a	1
51.424	0.616651907	DISHARMONY	lure	n/a	n/a	n/a	1
52.041	0.333331562	INNOVATION	lure	n/a	n/a	n/a	1
52.374	0.533327597	MILKSHAKE	lure	n/a	n/a	n/a	1
52.908	0.533326126	GRASSLAND	lure	n/a	n/a	n/a	1
53.441	0.333330802	TEARJERKER	lure	n/a	n/a	n/a	1
53.774	0.749980738	ANVIL	lure	n/a	n/a	n/a	1
54.524	0.583334214	CLERGYMAN	lure	n/a	n/a	n/a	1
55.108	0.749987016	HANDGUN	lure	n/a	n/a	n/a	1
55.858	0.566658486	INABILITY	lure	n/a	n/a	n/a	1
56.424	0.483323364	SWEATSHOP	lure	n/a	n/a	n/a	1
56.908	0.583327013	SIDEWINDER	lure	n/a	n/a	n/a	1
57.491	0.716658355	ARCHANGEL	lure	n/a	n/a	n/a	1
58.208	2.016636666	CURB	long	n/a	n/a	n/a	1
60.224	0.500048369	SUNBONNET	lure	n/a	n/a	n/a	1
60.724	0.683267842	WHOPPER	lure	n/a	n/a	n/a	1
61.408	0.616656091	IGNORANCE	lure	n/a	n/a	n/a	1
62.024	0.583327641	SCREENPLAY	lure	n/a	n/a	n/a	1
62.608	0.533387169	TROUPE	lure	n/a	n/a	n/a	1
63.141	0.449934215	BROADCLOTH	lure	n/a	n/a	n/a	1
63.591	0.56666001	JOCKEY	lure	n/a	n/a	n/a	1
64.157	0.649988057	KING	lure	n/a	n/a	n/a	1
64.807	0.683321734	RELIANCE	lure	n/a	n/a	n/a	1
65.491	0.666658765	ARMORY	lure	n/a	n/a	n/a	1
66.157	0.733323402	SHIRTWAIST	lure	n/a	n/a	n/a	1
66.891	1.016653188	MANGO	fruit	706	2	2	1
67.907	0.483323889	SMASHER	lure	n/a	n/a	n/a	1
68.391	0.483326658	WHEELBASE	lure	n/a	n/a	n/a	1
68.874	0.366660814	PLASTICITY	lure	n/a	n/a	n/a	1
69.241	0.633321727	LIMESTONE	lure	n/a	n/a	n/a	1
69.874	0.483331989	HEIR	lure	n/a	n/a	n/a	1
70.357	0.583439923	INTERCOM	lure	n/a	n/a	n/a	1
70.941	0.449880139	DAUGHTER	lure	n/a	n/a	n/a	1
71.391	0.483321693	STEAMSHIP	lure	n/a	n/a	n/a	1
71.874	0.717015742	SIXPENCE	lure	n/a	n/a	n/a	1
72.591	0.366367878	ADMIRALTY	lure	n/a	n/a	n/a	1
72.957	0.749978056	UPRISING	lure	n/a	n/a	n/a	1
73.707	0.533275344	BRAVADO	lure	n/a	n/a	n/a	1
74.241	0.449994922	WATERFRONT	lure	n/a	n/a	n/a	1
74.691	0.549987559	DRIVER	lure	n/a	n/a	n/a	1
75.241	2.016642606	CONTRACT	long	n/a	n/a	n/a	1
77.257	0.499990978	CITADEL	lure	n/a	n/a	n/a	1
77.757	0.683322952	TRANSITION	lure	n/a	n/a	n/a	1
78.441	0.33333195	ALTERNATOR	lure	n/a	n/a	n/a	1
78.774	0.43332763	OYSTER	lure	n/a	n/a	n/a	1
79.207	0.466659616	UNCONCERN	lure	n/a	n/a	n/a	1
79.674	0.766653857	TURNOFF	lure	n/a	n/a	n/a	1
80.441	0.399994928	JAY	lure	n/a	n/a	n/a	1
80.841	0.566654846	PICNIC	lure	n/a	n/a	n/a	1
81.407	0.583327324	CURBSIDE	lure	n/a	n/a	n/a	1
81.991	0.349999335	UNDERGRAD	lure	n/a	n/a	n/a	1
82.341	0.633322001	COLLECTOR	lure	n/a	n/a	n/a	1
82.974	0.537217743	TOURNAMENT	lure	n/a	n/a	n/a	1
83.511	1.012757305	BERRY	fruit	566	2	2	1
84.524	0.41666411	WHIRLWIND	lure	n/a	n/a	n/a	1
84.941	0.333327582	TAXIDERMY	lure	n/a	n/a	n/a	1
85.274	0.683322308	OILSKIN	lure	n/a	n/a	n/a	1
85.957	0.533323704	TEAROOM	lure	n/a	n/a	n/a	1
86.491	0.383382726	SLEEPER	lure	n/a	n/a	n/a	1
86.874	0.733272555	CASEBOOK	lure	n/a	n/a	n/a	1
87.607	0.666653083	COMRADE	lure	n/a	n/a	n/a	1
88.274	0.499995399	ADVENT	lure	n/a	n/a	n/a	1
88.774	0.333332008	PLURALITY	lure	n/a	n/a	n/a	1
89.107	0.716655329	DASHBOARD	lure	n/a	n/a	n/a	1
89.824	0.633325302	ENERGY	lure	n/a	n/a	n/a	1
90.457	0.39998982	CASKET	lure	n/a	n/a	n/a	1
90.857	0.74999053	ENGAGEMENT	lure	n/a	n/a	n/a	1
91.607	0.749989905	SIMPLICITY	lure	n/a	n/a	n/a	1
92.357	2.016637443	PITCHFORK	long	n/a	n/a	n/a	1
94.374	0.38333122	WOMANKIND	lure	n/a	n/a	n/a	1
94.757	0.716655167	PEDIMENT	lure	n/a	n/a	n/a	1
95.474	0.516657909	UTILITY	lure	n/a	n/a	n/a	1
95.99	0.366665073	ASSOn/aCE	lure	n/a	n/a	n/a	1
96.357	0.433323381	IMMORALITY	lure	n/a	n/a	n/a	1
96.79	0.466660396	IRONY	lure	n/a	n/a	n/a	1
97.257	0.449990932	POLICEMAN	lure	n/a	n/a	n/a	1
97.707	0.399996651	TRICYCLE	lure	n/a	n/a	n/a	1
98.107	0.533327854	RAILROADER	lure	n/a	n/a	n/a	1
98.64	0.499994976	RACEHORSE	lure	n/a	n/a	n/a	1
99.14	0.799984849	MEDICINE	lure	n/a	n/a	n/a	1
99.94	0.449996143	GALE	lure	n/a	n/a	n/a	1
100.39	2.016641377	PLANK	long	n/a	n/a	n/a	1
102.407	0.433318753	OUTGROWTH	lure	n/a	n/a	n/a	1
102.84	0.58333031	DETERGENT	lure	n/a	n/a	n/a	1
103.424	0.550047226	INNKEEPER	lure	n/a	n/a	n/a	1
103.974	0.566603556	FISHERMAN	lure	n/a	n/a	n/a	1
104.54	0.499991649	SECESSION	lure	n/a	n/a	n/a	1
105.04	0.46666282	MOCKERY	lure	n/a	n/a	n/a	1
105.507	0.73332156	LANDFALL	lure	n/a	n/a	n/a	1
106.24	0.666658151	RATIONALE	lure	n/a	n/a	n/a	1
106.907	0.350050791	SUBURBIA	lure	n/a	n/a	n/a	1
107.257	0.583270744	ANIMALISM	lure	n/a	n/a	n/a	1
107.84	0.649990271	EARSHOT	lure	n/a	n/a	n/a	1
108.49	0.616658327	MATTRESS	short	n/a	n/a	n/a	1
109.107	0.349994004	HARLOT	lure	n/a	n/a	n/a	1
109.457	0.549992028	PRIEST	lure	n/a	n/a	n/a	1
110.007	0.683382887	SACCHARIN	lure	n/a	n/a	n/a	1
110.69	0.433267035	DOER	lure	n/a	n/a	n/a	1
111.124	0.53405268	GIRTH	lure	n/a	n/a	n/a	1
111.658	0.715929954	PONY	lure	n/a	n/a	n/a	1
112.373	0.733325239	ANTELOPE	lure	n/a	n/a	n/a	1
113.107	0.73332089	TREASON	lure	n/a	n/a	n/a	1
113.84	0.466659985	FACTORY	lure	n/a	n/a	n/a	1
114.307	0.733319651	DRAGNET	lure	n/a	n/a	n/a	1
115.04	0.683328191	PLAYER	lure	n/a	n/a	n/a	1
115.723	0.349993942	FOLLICLE	lure	n/a	n/a	n/a	1
116.073	0.749992051	DIRECTORY	lure	n/a	n/a	n/a	1
116.823	2.016637067	LEAF	long	n/a	n/a	n/a	1
118.84	0.733318986	TOXICITY	lure	n/a	n/a	n/a	1
119.573	0.499997104	NIECE	lure	n/a	n/a	n/a	1
120.073	0.749991294	BRICKYARD	lure	n/a	n/a	n/a	1
120.823	0.349993288	FOREST	lure	n/a	n/a	n/a	1
121.173	0.583326611	OUTPOST	lure	n/a	n/a	n/a	1
121.757	0.699982516	SEAPORT	lure	n/a	n/a	n/a	1
122.457	0.450001413	TIGER	lure	n/a	n/a	n/a	1
122.907	0.316660817	DISORDER	lure	n/a	n/a	n/a	1
123.223	0.516662071	LEAKAGE	lure	n/a	n/a	n/a	1
123.74	0.383387282	WAISTBAND	lure	n/a	n/a	n/a	1
124.123	0.599930548	PLUNGER	lure	n/a	n/a	n/a	1
124.723	0.699985916	SHAMMY	lure	n/a	n/a	n/a	1
125.423	0.616662072	NAIL	short	n/a	n/a	n/a	1
126.04	0.499986706	RUBDOWN	lure	n/a	n/a	n/a	1
126.54	0.666662726	GUNSMITH	lure	n/a	n/a	n/a	1
127.207	0.349995313	ANARCHIST	lure	n/a	n/a	n/a	1
127.557	0.666715331	HORSEPLAY	lure	n/a	n/a	n/a	1
128.223	0.633264608	WINDSHIELD	lure	n/a	n/a	n/a	1
128.857	0.74999124	NOISE	lure	n/a	n/a	n/a	1
129.607	0.316661459	ADHERENCE	lure	n/a	n/a	n/a	1
129.923	0.333330253	VERANDA	lure	n/a	n/a	n/a	1
130.257	0.766652544	DISSENSION	lure	n/a	n/a	n/a	1
131.023	0.43332879	GASMASK	lure	n/a	n/a	n/a	1
131.457	0.333331228	SEAPLANE	lure	n/a	n/a	n/a	1
131.79	0.733322572	MEDICATION	lure	n/a	n/a	n/a	1
132.523	0.450047005	VERNACULAR	lure	n/a	n/a	n/a	1
132.973	0.316664236	SUMMIT	lure	n/a	n/a	n/a	1
133.29	1.016599148	GRAPEFRUIT	fruit	755	2	2	1
134.307	0.683374343	MEALTIME	lure	n/a	n/a	n/a	1
134.99	0.366663049	BURGUNDY	lure	n/a	n/a	n/a	1
135.357	0.466660468	CONTIGUITY	lure	n/a	n/a	n/a	1
135.823	0.466604554	RESPIRATOR	lure	n/a	n/a	n/a	1
136.29	0.66671409	ABUNDANCE	lure	n/a	n/a	n/a	1
136.957	0.499936369	FISHER	lure	n/a	n/a	n/a	1
137.456	0.466661148	COTTONSEED	lure	n/a	n/a	n/a	1
137.923	0.450050774	ESTATE	lure	n/a	n/a	n/a	1
138.373	0.433270963	SNOWSTORM	lure	n/a	n/a	n/a	1
138.806	0.733322442	COMPLETION	lure	n/a	n/a	n/a	1
139.54	0.716655272	TEAMSTER	lure	n/a	n/a	n/a	1
140.256	0.33341807	PENSION	lure	n/a	n/a	n/a	1
140.59	0.420383022	ALMOND	lure	n/a	n/a	n/a	1
141.01	0.379513752	BUSTLE	lure	n/a	n/a	n/a	1
141.39	0.616661412	ROOT	short	n/a	n/a	n/a	1
142.006	0.449993322	LIABILITY	lure	n/a	n/a	n/a	1
142.456	0.31671762	ALDERMEN	lure	n/a	n/a	n/a	1
142.773	0.316650919	DOLLAR	lure	n/a	n/a	n/a	1
143.09	0.633279115	PRESIDENCY	lure	n/a	n/a	n/a	1
143.723	0.316663266	PIANO	lure	n/a	n/a	n/a	1
144.04	0.316715071	AMBASSADOR	lure	n/a	n/a	n/a	1
144.356	0.653270799	BIRD	lure	n/a	n/a	n/a	1
145.01	0.579993165	PARABLE	lure	n/a	n/a	n/a	1
145.59	0.449992389	LEOPARD	lure	n/a	n/a	n/a	1
146.04	0.549987453	PEN	lure	n/a	n/a	n/a	1
146.59	0.366663624	ABDOMEN	lure	n/a	n/a	n/a	1
146.956	0.483391939	LEDGER	lure	n/a	n/a	n/a	1
147.44	0.699923888	MATRIARCH	lure	n/a	n/a	n/a	1
148.14	0.516663828	LOCALE	lure	n/a	n/a	n/a	1
148.656	0.54998674	PARADISE	lure	n/a	n/a	n/a	1
149.206	0.633386502	VELVET	lure	n/a	n/a	n/a	1
149.84	2.016582563	RAKE	long	n/a	n/a	n/a	1
151.856	0.316719662	IMBALANCE	lure	n/a	n/a	n/a	1
152.173	0.633265735	PHONEBOOTH	lure	n/a	n/a	n/a	1
152.806	0.349996185	PEDICURE	lure	n/a	n/a	n/a	1
153.156	0.63332574	PIGEONHOLE	lure	n/a	n/a	n/a	1
153.79	0.599988682	CROSSBEAM	lure	n/a	n/a	n/a	1
154.39	0.383329995	DECISION	lure	n/a	n/a	n/a	1
154.773	0.666657494	UNIVERSITY	lure	n/a	n/a	n/a	1
155.44	0.533379336	DEALER	lure	n/a	n/a	n/a	1
155.973	0.599993591	GYMNASIUM	lure	n/a	n/a	n/a	1
156.573	0.46665913	MEMBRANE	lure	n/a	n/a	n/a	1
157.04	0.566605373	GIRLFRIEND	lure	n/a	n/a	n/a	1
157.606	0.716655164	DEPICTION	lure	n/a	n/a	n/a	1
158.323	1.016654423	BAn/aA	fruit	n/a	n/a	2	0
159.339	0.350039737	OUTSET	lure	n/a	n/a	n/a	1
159.69	0.466669681	BREADBOARD	lure	244	2	n/a	0
160.156	0.718965919	TENOR	lure	n/a	n/a	n/a	1
160.875	0.431018443	MISFIT	lure	n/a	n/a	n/a	1
161.306	0.399992678	CILIA	lure	n/a	n/a	n/a	1
161.706	0.549991559	LABORER	lure	n/a	n/a	n/a	1
162.256	0.683271859	AQUEDUCT	lure	n/a	n/a	n/a	1
162.939	0.34999245	REMn/aT	lure	n/a	n/a	n/a	1
163.289	0.433324345	SUNSHINE	lure	n/a	n/a	n/a	1
163.723	0.666659639	HOMELAND	lure	n/a	n/a	n/a	1
164.389	0.43332791	RECOUNT	lure	n/a	n/a	n/a	1
164.823	0.383328227	BARBER	lure	n/a	n/a	n/a	1
165.206	0.333328511	ZOOLOGIST	lure	n/a	n/a	n/a	1
165.539	0.433326198	SPLENDOR	lure	n/a	n/a	n/a	1
165.973	0.483325573	FROGMAN	lure	n/a	n/a	n/a	1
166.456	1.016656054	BAn/aA	fruit	645	2	2	1
167.473	0.399990927	WOAD	lure	n/a	n/a	n/a	1
167.873	0.333330521	MEDALLION	lure	n/a	n/a	n/a	1
168.206	0.46665726	REFRESHER	lure	n/a	n/a	n/a	1
168.673	0.566660122	TRIBUTE	lure	n/a	n/a	n/a	1
169.239	0.433375286	FOYER	lure	n/a	n/a	n/a	1
169.673	0.683274807	Un/aIMITY	lure	n/a	n/a	n/a	1
170.356	0.633329414	ORACLE	lure	n/a	n/a	n/a	1
170.989	0.649992026	MISSY	lure	n/a	n/a	n/a	1
171.639	0.416654315	VISION	lure	n/a	n/a	n/a	1
172.056	0.716661098	CRANNY	lure	n/a	n/a	n/a	1
172.773	0.41665573	APPRAISAL	lure	n/a	n/a	n/a	1
173.189	0.566721538	CORDIALITY	lure	n/a	n/a	n/a	1
173.756	0.583267892	CONSTRAINT	lure	n/a	n/a	n/a	1
174.339	0.349989075	THYROID	lure	n/a	n/a	n/a	1
174.689	0.616659637	PENNY	short	n/a	n/a	n/a	1
175.306	0.350056363	AGILITY	lure	n/a	n/a	n/a	1
175.656	0.616595207	BLOCKHOUSE	lure	n/a	n/a	n/a	1
176.273	0.700055555	FACET	lure	n/a	n/a	n/a	1
176.973	0.399934623	SPECTRUM	lure	n/a	n/a	n/a	1
177.373	0.416717334	DEMON	lure	n/a	n/a	n/a	1
177.789	0.483265186	POSTERITY	lure	n/a	n/a	n/a	1
178.273	0.733326849	WELFARE	lure	n/a	n/a	n/a	1
179.006	0.416658352	HOUSEWIFE	lure	n/a	n/a	n/a	1
179.423	0.418992901	SHAKEDOWN	lure	n/a	n/a	n/a	1
179.842	0.331044813	THROWBACK	lure	n/a	n/a	n/a	1
180.173	0.366617671	INHIBITOR	lure	n/a	n/a	n/a	1
180.539	0.649988013	PAPERBOY	lure	n/a	n/a	n/a	1
181.189	0.416660397	NYLON	lure	n/a	n/a	n/a	1
181.606	0.566659922	HEADER	lure	n/a	n/a	n/a	1
182.173	0.433327912	ABILITY	lure	n/a	n/a	n/a	1
182.606	0.700041548	FRIEND	lure	n/a	n/a	n/a	1
183.306	2.016584118	FOSSIL	long	n/a	n/a	n/a	1
185.322	0.799989927	ENVELOPE	lure	n/a	n/a	n/a	1
186.122	0.333376704	DELETION	lure	n/a	n/a	n/a	1
186.456	0.633325234	SCALP	lure	n/a	n/a	n/a	1
187.089	0.533277749	MURAL	lure	n/a	n/a	n/a	1
187.622	0.653940549	COMPANY	lure	n/a	n/a	n/a	1
188.276	0.462711617	PENTHOUSE	lure	n/a	n/a	n/a	1
188.739	0.633325148	AUTOPSY	lure	n/a	n/a	n/a	1
189.372	0.416659657	SETBACK	lure	n/a	n/a	n/a	1
189.789	0.499992739	KEEPER	lure	n/a	n/a	n/a	1
190.289	0.566657506	VITALITY	lure	n/a	n/a	n/a	1
190.856	0.48332667	NONDRIVER	lure	n/a	n/a	n/a	1
191.339	1.016791421	CHERRY	fruit	706	2	2	1
192.356	0.549853246	STADIUM	lure	n/a	n/a	n/a	1
192.906	0.749987102	KEROSENE	lure	n/a	n/a	n/a	1
193.656	0.433332535	COUNTDOWN	lure	n/a	n/a	n/a	1
194.089	0.716656676	PIPER	lure	n/a	n/a	n/a	1
194.806	0.383322194	MEMBER	lure	n/a	n/a	n/a	1
195.189	0.599995134	TEMPLE	lure	n/a	n/a	n/a	1
195.789	0.399994698	FISSION	lure	n/a	n/a	n/a	1
196.189	0.466662147	TEAMMATE	lure	n/a	n/a	n/a	1
196.656	0.566655163	ANNEX	lure	n/a	n/a	n/a	1
197.222	0.449996027	DISABILITY	lure	n/a	n/a	n/a	1
197.672	0.533324753	EMOTION	lure	n/a	n/a	n/a	1
198.206	0.716657041	MEADOW	lure	n/a	n/a	n/a	1
198.922	0.566708709	BOUT	lure	n/a	n/a	n/a	1
199.489	2.016591323	PATCH	long	n/a	n/a	n/a	1
201.506	0.516656053	CONDOLENCE	lure	n/a	n/a	n/a	1
202.022	0.4333299	ALIGNMENT	lure	n/a	n/a	n/a	1
202.456	0.450032887	LATCH	lure	n/a	n/a	n/a	1
202.906	0.33328788	GOURMET	lure	n/a	n/a	n/a	1
203.239	0.799987709	FAME	lure	n/a	n/a	n/a	1
204.039	0.383330951	BUTTERCUP	lure	n/a	n/a	n/a	1
204.422	0.666657226	INDENT	lure	n/a	n/a	n/a	1
205.089	0.349993277	CARETAKER	lure	n/a	n/a	n/a	1
205.439	0.733326543	BOOKCASE	lure	n/a	n/a	n/a	1
206.172	0.633323494	KILLJOY	lure	n/a	n/a	n/a	1
206.806	0.683320125	TURTLEDOVE	lure	n/a	n/a	n/a	1
207.489	0.533327632	MINUTEMAN	lure	n/a	n/a	n/a	1
208.022	0.616660563	APRON	short	n/a	n/a	n/a	1
208.639	0.549986685	PROCESSION	lure	n/a	n/a	n/a	1
209.189	0.433330952	SHIPLOAD	lure	n/a	n/a	n/a	1
209.622	0.349994004	DOE	lure	n/a	n/a	n/a	1
209.972	0.599994706	ICEBOX	lure	n/a	n/a	n/a	1
210.572	0.416662111	FIREWATER	lure	n/a	n/a	n/a	1
210.989	0.416703762	SHOWDOWN	lure	n/a	n/a	n/a	1
211.405	0.383284302	PATRIARCHY	lure	n/a	n/a	n/a	1
211.789	0.466716589	AEROPLANE	lure	n/a	n/a	n/a	1
212.255	0.533315835	LADYBIRD	lure	n/a	n/a	n/a	1
212.789	0.36670718	COGNITION	lure	n/a	n/a	n/a	1
213.156	0.416567689	RECITATION	lure	n/a	n/a	n/a	1
213.572	0.466653659	DESPERADO	lure	n/a	n/a	n/a	1
214.039	0.316667579	DISSENT	lure	n/a	n/a	n/a	1
214.355	0.449988745	FRATERNITY	lure	n/a	n/a	n/a	1
214.805	0.366665733	HASP	lure	n/a	n/a	n/a	1
215.172	0.516660324	INJUSTICE	lure	n/a	n/a	n/a	1
215.689	0.350009717	FOLK	lure	n/a	n/a	n/a	1
216.039	0.616706788	TRUCK	short	n/a	n/a	n/a	1
216.655	0.466591262	ENORMITY	lure	n/a	n/a	n/a	1
217.122	0.383327884	OKRA	lure	n/a	n/a	n/a	1
217.505	0.716663071	DENTIST	lure	n/a	n/a	n/a	1
218.222	0.749985791	MARMALADE	lure	n/a	n/a	n/a	1
218.972	0.349994157	ADVERT	lure	169	2	n/a	0
219.322	0.66665893	HOMEGROWN	lure	n/a	n/a	n/a	1
219.989	0.349998087	OBLIGATION	lure	n/a	n/a	n/a	1
220.339	0.349990683	UNISON	lure	n/a	n/a	n/a	1
220.689	0.466665562	INSPECTION	lure	n/a	n/a	n/a	1
221.155	0.633318385	REGIMEN	lure	n/a	n/a	n/a	1
221.789	0.733322086	DETRACTION	lure	n/a	n/a	n/a	1
222.522	0.466725954	EPIGRAPH	lure	n/a	n/a	n/a	1
222.989	0.499931046	REDCOAT	lure	n/a	n/a	n/a	1
223.489	0.699985781	BROW	lure	n/a	n/a	n/a	1
224.189	0.31671788	RUBBLE	lure	n/a	n/a	n/a	1
224.505	0.333278927	JAMBOREE	lure	n/a	n/a	n/a	1
224.839	0.599992826	FUTILITY	lure	n/a	n/a	n/a	1
225.439	0.533325938	WIFE	lure	n/a	n/a	n/a	1
225.972	0.383329916	BACKSTROKE	lure	n/a	n/a	n/a	1
226.355	0.549992602	ZODIAC	lure	n/a	n/a	n/a	1
226.905	n/a	BRIGADE	lure	n/a	n/a	n/a	1
238.022	0.415916574	URETHRA	lure	n/a	n/a	n/a	1
238.438	0.399996807	ANEMIA	lure	n/a	n/a	n/a	1
238.838	0.383328484	TENURE	lure	n/a	n/a	n/a	1
239.222	0.583386027	WORD	lure	n/a	n/a	n/a	1
239.805	0.34993632	CATACOMB	lure	n/a	n/a	n/a	1
240.155	0.649987284	ADJECTIVE	lure	n/a	n/a	n/a	1
240.805	0.716661387	BROADSHEET	lure	n/a	n/a	n/a	1
241.522	0.61665532	FLOWERBED	lure	n/a	n/a	n/a	1
242.138	1.016654403	CHERRY	fruit	691	2	2	1
243.155	0.616655314	BREAKAWAY	lure	n/a	n/a	n/a	1
243.772	0.350111869	BONDHOLDER	lure	n/a	n/a	n/a	1
244.122	0.383214074	MOLEHILL	lure	n/a	n/a	n/a	1
244.505	0.683320188	BLACKSMITH	lure	n/a	n/a	n/a	1
245.188	0.449997203	BREATH	lure	n/a	n/a	n/a	1
245.638	0.649991589	POD	lure	n/a	n/a	n/a	1
246.288	0.499990733	REHASH	lure	n/a	n/a	n/a	1
246.788	0.633324527	VULTURE	lure	n/a	n/a	n/a	1
247.422	0.499988623	RESTRAINT	lure	n/a	n/a	n/a	1
247.922	0.599993791	FANTASIA	lure	n/a	n/a	n/a	1
248.522	0.749989722	SCEPTICISM	lure	n/a	n/a	n/a	1
249.272	0.616661277	SULFUR	lure	n/a	n/a	n/a	1
249.888	0.752078998	WITHDRAWAL	lure	n/a	n/a	n/a	1
250.64	0.614569565	APRON	short	n/a	n/a	n/a	1
251.255	0.649986023	COPIER	lure	n/a	n/a	n/a	1
251.905	0.716656895	WESTERNER	lure	n/a	n/a	n/a	1
252.622	0.450054823	ASTRONOMER	lure	n/a	n/a	n/a	1
253.072	0.599990626	BYWAY	lure	n/a	n/a	n/a	1
253.672	0.64993124	DEPTH	lure	n/a	n/a	n/a	1
254.322	0.450107329	STALLION	lure	n/a	n/a	n/a	1
254.772	0.766545413	ORATION	lure	n/a	n/a	n/a	1
255.538	0.666716311	GAVEL	lure	n/a	n/a	n/a	1
256.205	0.583310541	MARE	lure	n/a	n/a	n/a	1
256.788	0.619371884	STALEMATE	lure	n/a	n/a	n/a	1
257.408	0.363904497	RESURGENCE	lure	n/a	n/a	n/a	1
257.771	0.749983194	ARCHER	lure	n/a	n/a	n/a	1
258.521	0.599991947	SPECTER	lure	n/a	n/a	n/a	1
259.121	0.616663777	PENNY	short	n/a	n/a	n/a	1
259.738	0.416655303	BEAKER	lure	n/a	n/a	n/a	1
260.155	0.383331822	INGESTION	lure	n/a	n/a	n/a	1
260.538	0.749992757	CONVOY	lure	n/a	n/a	n/a	1
261.288	0.40400227	HYMN	lure	n/a	n/a	n/a	1
261.692	0.345986275	RINK	lure	n/a	n/a	n/a	1
262.038	0.433324584	TONSIL	lure	n/a	n/a	n/a	1
262.471	0.350052198	DIPPER	lure	n/a	n/a	n/a	1
262.821	0.699932961	BEDROCK	lure	n/a	n/a	n/a	1
263.521	0.466730774	MILLENNIUM	lure	n/a	n/a	n/a	1
263.988	0.483257004	WARMUP	lure	n/a	n/a	n/a	1
264.471	0.553558091	ESCAPADE	lure	n/a	n/a	n/a	1
265.025	0.579761325	WRECKAGE	lure	n/a	n/a	n/a	1
265.605	0.733318645	DEPUTY	lure	n/a	n/a	n/a	1
266.338	0.533323324	CONTENTION	lure	n/a	n/a	n/a	1
266.871	0.583331127	JIGSAW	lure	n/a	n/a	n/a	1
267.455	2.016640603	CONTRACT	long	n/a	n/a	n/a	1
269.471	0.366705344	LETTERMAN	lure	n/a	n/a	n/a	1
269.838	0.466618788	VESTMENT	lure	n/a	n/a	n/a	1
270.305	0.383322761	GRIEF	lure	n/a	n/a	n/a	1
270.688	0.333371805	OVERLAP	lure	n/a	n/a	n/a	1
271.021	0.583281627	BLOWPIPE	lure	n/a	n/a	n/a	1
271.605	0.483329506	HIDEOUT	lure	n/a	n/a	n/a	1
272.088	0.366659039	LARD	lure	n/a	n/a	n/a	1
272.455	0.549989369	STRIKER	lure	n/a	n/a	n/a	1
273.005	0.633324337	LAUGHTER	lure	n/a	n/a	n/a	1
273.638	0.649992416	SAUNA	lure	n/a	n/a	n/a	1
274.288	0.366658906	CORNFIELD	lure	n/a	n/a	n/a	1
274.655	0.416663562	CLOCK	lure	n/a	n/a	n/a	1
275.071	0.59999339	SPUD	lure	n/a	n/a	n/a	1
275.671	0.616660565	MATTRESS	short	n/a	n/a	n/a	1
276.288	0.38337242	CUPBOARD	lure	n/a	n/a	n/a	1
276.671	0.616611352	BULLETIN	lure	n/a	n/a	n/a	1
277.288	0.54999203	OWNER	lure	n/a	n/a	n/a	1
277.838	0.633321805	WARLOCK	lure	n/a	n/a	n/a	1
278.471	0.416661961	COURAGE	lure	n/a	n/a	n/a	1
278.888	0.6025939	SHIRE	lure	n/a	n/a	n/a	1
279.49	0.4140632	SQUAD	lure	n/a	n/a	n/a	1
279.904	0.449985947	SENATOR	lure	n/a	n/a	n/a	1
280.354	0.61666059	STALKER	lure	n/a	n/a	n/a	1
280.971	0.500053242	PAYMENT	lure	n/a	n/a	n/a	1
281.471	0.366599537	BREAKUP	lure	n/a	n/a	n/a	1
281.838	0.749992503	DISCUSSION	lure	n/a	n/a	n/a	1
282.588	0.49999674	DOGHOUSE	lure	n/a	n/a	n/a	1
283.088	0.699988847	RETELLING	lure	n/a	n/a	n/a	1
283.788	2.016634024	SKETCH	long	n/a	n/a	n/a	1
285.804	0.433325441	POND	lure	n/a	n/a	n/a	1
286.238	0.450094782	SHRUB	lure	n/a	n/a	n/a	1
286.688	0.38323039	ZEBRA	lure	n/a	n/a	n/a	1
287.071	0.750046915	SHANK	lure	n/a	n/a	n/a	1
287.821	0.599935779	PREVENTION	lure	n/a	n/a	n/a	1
288.421	0.333328549	REBOUND	lure	n/a	n/a	n/a	1
288.754	0.516656018	INHALER	lure	n/a	n/a	n/a	1
289.271	0.716658355	CHOPSTICK	lure	n/a	n/a	n/a	1
289.988	0.466661318	STOVE	lure	n/a	n/a	n/a	1
290.454	0.649990223	POTTERY	lure	n/a	n/a	n/a	1
291.104	0.549989767	AIRPORT	lure	n/a	n/a	n/a	1
291.654	0.36666522	AFFIX	lure	n/a	n/a	n/a	1
292.021	0.61665769	NICKEL	short	n/a	n/a	n/a	1
292.638	0.5372755	MOLE	lure	n/a	n/a	n/a	1
293.175	0.696041287	CROSSOVER	lure	n/a	n/a	n/a	1
293.871	0.383326277	CULT	lure	n/a	n/a	n/a	1
294.254	0.416662833	DRUNKARD	lure	n/a	n/a	n/a	1
294.671	0.766653027	ANIMAL	lure	n/a	n/a	n/a	1
295.438	0.449994501	SLEIGH	lure	n/a	n/a	n/a	1
295.888	0.666729206	CENT	lure	n/a	n/a	n/a	1
296.554	0.351539694	IMPOSITION	lure	n/a	n/a	n/a	1
296.906	0.631774126	CHEF	lure	n/a	n/a	n/a	1
297.538	0.36660043	CRAFTSMAN	lure	n/a	n/a	n/a	1
297.904	0.616654257	PRESERVER	lure	n/a	n/a	n/a	1
298.521	0.616655585	EPILOGUE	lure	n/a	n/a	n/a	1
299.138	0.466662716	GELATIN	lure	n/a	n/a	n/a	1
299.604	0.333324474	MAINSTAY	lure	n/a	n/a	n/a	1
299.938	1.049988071	APPLE	fruit	620	2	2	1
300.988	0.316701679	HEATSTROKE	lure	n/a	n/a	n/a	1
301.304	0.699953674	HOLLY	lure	n/a	n/a	n/a	1
302.004	0.416711427	SOMBRERO	lure	n/a	n/a	n/a	1
302.421	0.599938859	VALIDATION	lure	n/a	n/a	n/a	1
303.021	0.74998539	DISSERVICE	lure	n/a	n/a	n/a	1
303.771	0.433334638	UPKEEP	lure	n/a	n/a	n/a	1
304.204	0.699990708	LOTTO	lure	n/a	n/a	n/a	1
304.904	0.350051729	GIBLET	lure	n/a	n/a	n/a	1
305.254	0.616597988	CORN	lure	n/a	n/a	n/a	1
305.871	0.416659245	TUNER	lure	n/a	n/a	n/a	1
306.287	0.483328683	CHIMPANZEE	lure	n/a	n/a	n/a	1
306.771	0.616655785	ONYX	lure	n/a	n/a	n/a	1
307.387	0.499995172	TREATMENT	lure	n/a	n/a	n/a	1
307.887	2.016641584	PATCH	long	n/a	n/a	n/a	1
309.904	0.416717108	FIGHTER	lure	n/a	n/a	n/a	1
310.321	0.702638917	SERMON	lure	n/a	n/a	n/a	1
311.023	0.416560711	KNOCKDOWN	lure	n/a	n/a	n/a	1
311.44	0.380722869	SHORTFALL	lure	n/a	n/a	n/a	1
311.821	0.599989897	RAGTIME	lure	n/a	n/a	n/a	1
312.421	0.433325	MAXIMUM	lure	n/a	n/a	n/a	1
312.854	0.533386614	LEAGUE	lure	n/a	n/a	n/a	1
313.387	0.533267254	DOGCATCHER	lure	n/a	n/a	n/a	1
313.921	0.349996456	PROVIDER	lure	n/a	n/a	n/a	1
314.271	0.616655973	NOSTALGIA	lure	n/a	n/a	n/a	1
314.887	0.349991446	AMBIENCE	lure	n/a	n/a	n/a	1
315.237	0.699994307	THUG	lure	n/a	n/a	n/a	1
315.937	0.416718665	APPETITE	lure	n/a	n/a	n/a	1
316.354	2.016582493	RAKE	long	n/a	n/a	n/a	1
318.371	0.533320815	SOLIDARITY	lure	n/a	n/a	n/a	1
318.904	0.733324798	MANTEL	lure	n/a	n/a	n/a	1
319.637	0.516657648	HEARSE	lure	n/a	n/a	n/a	1
320.154	0.383328749	EXUBERANCE	lure	n/a	n/a	n/a	1
320.537	0.316660699	PERSECUTOR	lure	n/a	n/a	n/a	1
320.854	0.699992272	PEACE	lure	n/a	n/a	n/a	1
321.554	0.466662315	INERTIA	lure	n/a	n/a	n/a	1
322.021	0.566657409	PLUMBER	lure	n/a	n/a	n/a	1
322.587	0.316662652	HEADLIGHT	lure	n/a	n/a	n/a	1
322.904	0.516656624	STOREROOM	lure	n/a	n/a	n/a	1
323.421	0.733322758	SECRETION	lure	n/a	n/a	n/a	1
324.154	0.566665313	HEARTBREAK	lure	n/a	n/a	n/a	1
324.721	1.016650657	BERRY	fruit	669	2	2	1
325.737	0.618876272	BOOKKEEPER	lure	n/a	n/a	n/a	1
326.356	0.514494669	LAYOVER	lure	n/a	n/a	n/a	1
326.871	0.366604804	TANNER	lure	n/a	n/a	n/a	1
327.237	0.616660633	SEASHORE	lure	n/a	n/a	n/a	1
327.854	0.633323828	GRANDCHILD	lure	n/a	n/a	n/a	1
328.487	0.366663979	PORTFOLIO	lure	n/a	n/a	n/a	1
328.854	0.650075731	AIRSPEED	lure	n/a	n/a	n/a	1
329.504	0.333241557	CLOCKWORK	lure	n/a	n/a	n/a	1
329.837	0.34999708	CULTIST	lure	n/a	n/a	n/a	1
330.187	0.533323905	WOODBLOCK	lure	n/a	n/a	n/a	1
330.72	0.466661077	SOFTWARE	lure	n/a	n/a	n/a	1
331.187	0.350048659	HEADROOM	lure	n/a	n/a	n/a	1
331.537	0.383276693	MAIDENHOOD	lure	n/a	n/a	n/a	1
331.92	0.737069115	ADOPTION	lure	n/a	n/a	n/a	1
332.657	0.631579721	NORMALITY	lure	n/a	n/a	n/a	1
333.289	1.017579923	KIWI	fruit	716	2	2	1
334.307	0.663724259	PAVEMENT	lure	n/a	n/a	n/a	1
334.97	0.349998016	AMBIANCE	lure	n/a	n/a	n/a	1
335.32	0.783321022	KINSHIP	lure	n/a	n/a	n/a	1
336.104	0.566655714	GRID	lure	n/a	n/a	n/a	1
336.67	0.516660973	COMMITTEE	lure	n/a	n/a	n/a	1
337.187	0.433328345	ASSUMPTION	lure	n/a	n/a	n/a	1
337.62	0.38421342	PULLBACK	lure	n/a	n/a	n/a	1
338.005	0.649108967	INSULATOR	lure	n/a	n/a	n/a	1
338.654	0.533322777	LEAFLET	lure	n/a	n/a	n/a	1
339.187	0.600092702	TEXTILE	lure	n/a	n/a	n/a	1
339.787	0.69989184	DILL	lure	n/a	n/a	n/a	1
340.487	0.666657273	SPELLER	lure	n/a	n/a	n/a	1
341.154	0.399990415	PERTINENCE	lure	n/a	n/a	n/a	1
341.554	1.016653746	ELDERBERRY	fruit	780	2	2	1
342.57	0.416661667	COUNCIL	lure	n/a	n/a	n/a	1
342.987	0.716653982	MARKSMAN	lure	n/a	n/a	n/a	1
343.704	0.684201478	WOODYARD	lure	n/a	n/a	n/a	1
344.388	0.515788648	BACTERIA	lure	n/a	n/a	n/a	1
344.904	0.333320934	ARMFUL	lure	n/a	n/a	n/a	1
345.237	0.549996	MEMOIR	lure	n/a	n/a	n/a	1
345.787	0.383328283	MODERNISM	lure	n/a	n/a	n/a	1
346.17	0.766656839	VEGETATION	lure	n/a	n/a	n/a	1
346.937	0.666656003	JOKER	lure	n/a	n/a	n/a	1
347.604	0.699989743	LADDIE	lure	n/a	n/a	n/a	1
348.304	0.499993636	REFINEMENT	lure	n/a	n/a	n/a	1
348.804	0.566659521	DESTROYER	lure	n/a	n/a	n/a	1
349.37	0.683324353	JEWELRY	lure	n/a	n/a	n/a	1
350.054	2.016640124	PITCHFORK	long	n/a	n/a	n/a	1
352.07	0.383325578	PRETENSE	lure	n/a	n/a	n/a	1
352.453	0.383326217	OVERLAY	lure	n/a	n/a	n/a	1
352.837	0.333325334	SNAPDRAGON	lure	n/a	n/a	n/a	1
353.17	0.499997607	HESITANCE	lure	n/a	n/a	n/a	1
353.67	0.733325798	CONSTABLE	lure	n/a	n/a	n/a	1
354.403	0.316658414	SECRECY	lure	n/a	n/a	n/a	1
354.72	0.683325569	DETONATOR	lure	n/a	n/a	n/a	1
355.403	0.333324995	TOWN	lure	n/a	n/a	n/a	1
355.737	0.499997377	VITAMIN	lure	n/a	n/a	n/a	1
356.237	0.650036892	SEAMANSHIP	lure	n/a	n/a	n/a	1
356.887	0.499948169	KITTEN	lure	n/a	n/a	n/a	1
357.387	0.749988635	APOLOGIST	lure	n/a	n/a	n/a	1
358.137	0.583370739	OCEANSIDE	lure	n/a	n/a	n/a	1
358.72	2.016595285	PLANK	long	n/a	n/a	n/a	1
360.737	0.683318087	CLIPPER	lure	n/a	n/a	n/a	1
361.42	0.333428712	CRATER	lure	n/a	n/a	n/a	1
361.753	0.533230329	GENEROSITY	lure	n/a	n/a	n/a	1
362.287	0.733321457	LIMERICK	lure	n/a	n/a	n/a	1
363.02	0.433326872	UNLOADER	lure	n/a	n/a	n/a	1
363.453	0.499992257	VELVETEEN	lure	n/a	n/a	n/a	1
363.953	0.533387469	ABOLITION	lure	n/a	n/a	n/a	1
364.487	0.516595335	MAYPOLE	lure	n/a	n/a	n/a	1
365.003	0.666663017	CONTENDER	lure	n/a	n/a	n/a	1
365.67	0.3499902	TERRACOTTA	lure	n/a	n/a	n/a	1
366.02	0.43332869	ROVER	lure	n/a	n/a	n/a	1
366.453	0.43337422	LEGITIMACY	lure	n/a	n/a	n/a	1
366.887	0.616611784	TRUCK	short	n/a	n/a	n/a	1
367.503	0.616656925	IDEALIST	lure	n/a	n/a	n/a	1
368.12	0.349995316	DEW	lure	n/a	n/a	n/a	1
368.47	0.383328385	EARRING	lure	n/a	n/a	n/a	1
368.853	0.400044993	OVERSEER	lure	n/a	n/a	n/a	1
369.253	0.316656815	THYME	lure	n/a	n/a	n/a	1
369.57	0.516667552	CHURCH	lure	n/a	n/a	n/a	1
370.087	0.383279315	HAIRBRUSH	lure	n/a	n/a	n/a	1
370.47	0.516657976	STEPMOTHER	lure	n/a	n/a	n/a	1
370.987	0.749987702	DOORHANDLE	lure	n/a	n/a	n/a	1
371.737	0.683326388	CHALET	lure	n/a	n/a	n/a	1
372.42	0.633325492	CASSETTE	lure	n/a	n/a	n/a	1
373.053	0.51671477	DERIVATION	lure	n/a	n/a	n/a	1
373.57	0.42136243	FIXTURE	lure	n/a	n/a	n/a	1
373.991	0.44523333	PORCUPINE	lure	n/a	n/a	n/a	1
374.436	0.733382084	REVERSAL	lure	n/a	n/a	n/a	1
375.17	0.616602607	TIMBER	short	n/a	n/a	n/a	1
375.786	0.533374825	SERUM	lure	n/a	n/a	n/a	1
376.32	0.516605477	INFIRMITY	lure	n/a	n/a	n/a	1
376.836	0.649994056	LICENSEE	lure	n/a	n/a	n/a	1
377.486	0.716658029	DEERSKIN	lure	n/a	n/a	n/a	1
378.203	0.400051272	CIRCUIT	lure	n/a	n/a	n/a	1
378.603	0.633263842	HUE	lure	n/a	n/a	n/a	1
379.236	0.499990606	YOGURT	lure	n/a	n/a	n/a	1
379.736	0.533324004	VAMPIRE	lure	n/a	n/a	n/a	1
380.27	0.633329185	BELT	lure	n/a	n/a	n/a	1
380.903	0.416719138	ATTENDANCE	lure	n/a	n/a	n/a	1
381.32	0.602844462	DOORMAT	lure	n/a	n/a	n/a	1
381.923	0.680411306	OWNSELF	lure	n/a	n/a	n/a	1
382.603	0.683329854	PURPOSE	lure	n/a	n/a	n/a	1
383.286	0.533316236	TOWNSFOLK	lure	n/a	n/a	n/a	1
383.82	2.016647637	LEAF	long	n/a	n/a	n/a	1
385.836	0.549988506	WISECRACK	lure	n/a	n/a	n/a	1
386.386	0.733318495	TRAILER	lure	n/a	n/a	n/a	1
387.12	0.733327362	ALBUM	lure	n/a	n/a	n/a	1
387.853	0.499993076	CANDIDATE	lure	n/a	n/a	n/a	1
388.353	0.516659449	WITCH	lure	n/a	n/a	n/a	1
388.87	0.599992358	INCIDENT	lure	n/a	n/a	n/a	1
389.47	0.766654015	PRAGMATIST	lure	n/a	n/a	n/a	1
390.236	0.499993929	HERTZ	lure	n/a	n/a	n/a	1
390.736	0.633325968	GUZZLER	lure	n/a	n/a	n/a	1
391.37	0.433329792	BASILICA	lure	n/a	n/a	n/a	1
391.803	0.616657585	SOAP	short	n/a	n/a	n/a	1
392.42	0.616657026	FIn/aCIER	lure	n/a	n/a	n/a	1
393.036	0.449991902	PEANUT	lure	n/a	n/a	n/a	1
393.486	0.316661973	OUTRIGGER	lure	n/a	n/a	n/a	1
393.803	0.449992326	COLOGNE	lure	n/a	n/a	n/a	1
394.253	0.366723628	SINGSONG	lure	n/a	n/a	n/a	1
394.62	0.749928913	GREEn/aOOM	lure	n/a	n/a	n/a	1
395.37	0.633377875	CHECKUP	lure	n/a	n/a	n/a	1
396.003	0.64999374	STRIPE	lure	n/a	n/a	n/a	1
396.653	0.699934155	SECT	lure	n/a	n/a	n/a	1
397.353	0.58332525	LYE	lure	n/a	n/a	n/a	1
397.936	0.583329272	GALLANTRY	lure	n/a	n/a	n/a	1
398.519	0.633381788	CONJUNCT	lure	n/a	n/a	n/a	1
399.153	0.366599854	SHERRY	lure	n/a	n/a	n/a	1
399.519	0.583325533	POTBELLY	lure	n/a	n/a	n/a	1
400.103	0.616660151	ROOT	short	n/a	n/a	n/a	1
400.719	0.64998863	NEWT	lure	n/a	n/a	n/a	1
401.369	0.699987773	BOXCAR	lure	n/a	n/a	n/a	1
402.069	0.66666179	MANNEQUIN	lure	n/a	n/a	n/a	1
402.736	0.383323182	SEXTON	lure	n/a	n/a	n/a	1
403.119	0.483327202	DYNAMISM	lure	n/a	n/a	n/a	1
403.603	0.633328416	EXCERPT	lure	n/a	n/a	n/a	1
404.236	0.533326279	SPOKESMAN	lure	n/a	n/a	n/a	1
404.769	0.683369313	GUNPLAY	lure	n/a	n/a	n/a	1
405.453	0.466615754	CORRECTION	lure	n/a	n/a	n/a	1
405.919	0.333322962	HOLDER	lure	n/a	n/a	n/a	1
406.253	0.766657261	CORNCOB	lure	n/a	n/a	n/a	1
407.019	0.633328274	EPIGRAM	lure	n/a	n/a	n/a	1
407.653	0.683321834	FLASHBULB	lure	n/a	n/a	n/a	1
408.336	1.016652597	GOOSEBERRY	fruit	685	2	2	1
409.353	0.66666024	ALLIANCE	lure	n/a	n/a	n/a	1
410.019	0.566659759	RELATIVITY	lure	n/a	n/a	n/a	1
410.586	0.699989493	SIDELINE	lure	n/a	n/a	n/a	1
411.286	0.716656931	CASUALTY	lure	n/a	n/a	n/a	1
412.003	0.499990127	JIFFY	lure	n/a	n/a	n/a	1
412.503	0.73332387	WRAPPER	lure	n/a	n/a	n/a	1
413.236	0.399992771	GAINER	lure	n/a	n/a	n/a	1
413.636	0.64999201	MONOGAMY	lure	n/a	n/a	n/a	1
414.286	0.633325186	CABOODLE	lure	n/a	n/a	n/a	1
414.919	0.633322562	MORTICIAN	lure	n/a	n/a	n/a	1
415.553	0.566661629	RANSOM	lure	n/a	n/a	n/a	1
416.119	0.549995734	GENTILE	lure	n/a	n/a	n/a	1
416.669	0.616650007	NAIL	short	n/a	n/a	n/a	1
417.286	0.583325414	ABSORPTION	lure	n/a	n/a	n/a	1
417.869	0.633326102	KEYPUNCH	lure	n/a	n/a	n/a	1
418.503	0.650049414	SEAWAY	lure	n/a	n/a	n/a	1
419.153	0.799930653	NAVIGATION	lure	n/a	n/a	n/a	1
419.953	0.466660698	MAGMA	lure	n/a	n/a	n/a	1
420.419	0.633326202	FEDERALISM	lure	n/a	n/a	n/a	1
421.053	0.699983483	RAILROAD	lure	n/a	n/a	n/a	1
421.752	0.549998063	LAMPPOST	lure	n/a	n/a	n/a	1
422.302	0.721437948	CHINAWARE	lure	n/a	n/a	n/a	1
423.024	0.595269721	INSURANCE	lure	n/a	n/a	n/a	1
423.619	0.583260967	SIMILE	lure	n/a	n/a	n/a	1
424.202	0.499996726	AGITATOR	lure	n/a	n/a	n/a	1
424.702	2.016642964	CURB	long	n/a	n/a	n/a	1
426.719	0.533380141	PASTRY	lure	n/a	n/a	n/a	1
427.252	0.699934511	PARODY	lure	n/a	n/a	n/a	1
427.952	0.683320309	HUSSY	lure	n/a	n/a	n/a	1
428.636	0.450039174	PRETENSION	lure	n/a	n/a	n/a	1
429.086	0.73739689	GRADIENT	lure	n/a	n/a	n/a	1
429.823	0.46254622	TALE	lure	n/a	n/a	n/a	1
430.286	0.316654006	STAIR	lure	n/a	n/a	n/a	1
430.602	0.749988751	JUMPER	lure	n/a	n/a	n/a	1
431.352	0.533330182	ATHLETE	lure	n/a	n/a	n/a	1
431.886	0.599994175	NATURE	lure	n/a	n/a	n/a	1
432.486	0.649988474	DISRUPTION	lure	n/a	n/a	n/a	1
433.136	0.616656764	LENS	short	n/a	n/a	n/a	1
433.752	0.583327899	CRIME	lure	n/a	n/a	n/a	1
434.336	0.616730313	SYMPTOM	lure	n/a	n/a	n/a	1
434.952	0.516587487	CAVALRYMEN	lure	n/a	n/a	n/a	1
435.469	0.616659961	HINDRANCE	lure	n/a	n/a	n/a	1
436.086	0.533377785	FLYER	lure	n/a	n/a	n/a	1
436.619	0.550057003	CORRIDOR	lure	n/a	n/a	n/a	1
437.169	0.733204222	NECTAR	lure	n/a	n/a	n/a	1
437.902	0.616696067	CAUSALITY	lure	n/a	n/a	n/a	1
438.519	0.766617279	UPBRINGING	lure	n/a	n/a	n/a	1
439.286	0.700057022	PEAL	lure	n/a	n/a	n/a	1
439.986	0.533310417	ADVOCACY	lure	n/a	n/a	n/a	1
440.519	0.749999098	ESCALATOR	lure	n/a	n/a	n/a	1
441.269	0.466647947	CENSORSHIP	lure	n/a	n/a	n/a	1
441.736	2.016587506	TIRE	long	n/a	n/a	n/a	1
443.752	0.716708199	PENITENCE	lure	n/a	n/a	n/a	1
444.469	0.51667058	SALARY	lure	n/a	n/a	n/a	1
444.986	0.63326671	ESCALATION	lure	n/a	n/a	n/a	1
445.619	0.699991904	INQUIRY	lure	n/a	n/a	n/a	1
446.319	0.499989878	PENMANSHIP	lure	n/a	n/a	n/a	1
446.819	0.468419026	CREEK	lure	n/a	n/a	n/a	1
447.287	0.567566358	MART	lure	n/a	n/a	n/a	1
447.855	0.316603493	FARMHAND	lure	n/a	n/a	n/a	1
448.171	0.697380037	LAYOUT	lure	n/a	n/a	n/a	1
448.869	0.450040681	PIGSKIN	lure	n/a	n/a	n/a	1
449.319	0.699940007	HIGHLAND	lure	n/a	n/a	n/a	1
450.019	2.016646212	FOSSIL	long	n/a	n/a	n/a	1
452.035	0.61665521	INTENT	lure	n/a	n/a	n/a	1
452.652	0.666658782	PUZZLER	lure	n/a	n/a	n/a	1
453.319	0.433323814	FABLE	lure	n/a	n/a	n/a	1
453.752	0.633420442	TWISTER	lure	n/a	n/a	n/a	1
454.385	0.316612792	CACHE	lure	n/a	n/a	n/a	1
454.702	0.583321372	PUNISHMENT	lure	n/a	n/a	n/a	1
455.285	0.616617403	FOXGLOVE	lure	n/a	n/a	n/a	1
455.902	0.333325629	FINERY	lure	n/a	n/a	n/a	1
456.235	0.483330159	CHESSBOARD	lure	n/a	n/a	n/a	1
456.719	0.633414598	PEDESTAL	lure	n/a	n/a	n/a	1
457.352	0.383294633	THUMBTACK	lure	n/a	n/a	n/a	1
457.735	0.666599391	ENZYME	lure	n/a	n/a	n/a	1
458.402	0.616659101	BARON	lure	n/a	n/a	n/a	1
459.019	0.33333087	PEPTIDE	lure	n/a	n/a	n/a	1
459.352	0.466661506	ESPIONAGE	lure	n/a	n/a	n/a	1
459.819	0.683347866	POMP	lure	n/a	n/a	n/a	1
460.502	0.683292273	SUITCASE	lure	n/a	n/a	n/a	1
461.185	0.416665409	DOMICILE	lure	n/a	n/a	n/a	1
461.602	0.399994174	SAUSAGE	lure	n/a	n/a	n/a	1
462.002	0.450042369	ATROCITY	lure	n/a	n/a	n/a	1
462.452	0.483279337	SOLSTICE	lure	n/a	n/a	n/a	1
462.935	0.683378651	CONTEST	lure	n/a	n/a	n/a	1
463.619	0.483333533	REFERRAL	lure	n/a	n/a	n/a	1
464.102	0.59993088	HABIT	lure	n/a	n/a	n/a	1
464.702	n/a	CARNIVORE	lure	n/a	n/a	n/a	1