onset	duration	stim	cond	dur	RT	resp	cresp	acc
4.053	0.549994155	FLORA	lure	n/a	n/a	n/a	n/a	1
4.603	0.549984859	SYLLABLE	lure	n/a	n/a	n/a	n/a	1
5.153	0.566661338	ALOE	lure	n/a	n/a	n/a	n/a	1
5.72	0.549991117	HARMONICA	lure	n/a	n/a	n/a	n/a	1
6.27	0.73337525	LUSTRE	lure	n/a	n/a	n/a	n/a	1
7.003	0.349948936	COFFEEPOT	lure	n/a	n/a	n/a	n/a	1
7.353	0.749986687	SUCCESSION	lure	n/a	n/a	n/a	n/a	1
8.103	2.016639278	ORNAMENT	long	n/a	n/a	n/a	n/a	1
10.12	0.603642876	FATE	lure	n/a	n/a	n/a	n/a	1
10.723	0.613005329	COMMENTARY	lure	n/a	n/a	n/a	n/a	1
11.336	0.533383537	TEETH	lure	n/a	n/a	n/a	n/a	1
11.87	0.649934677	GATEHOUSE	lure	n/a	n/a	n/a	n/a	1
12.52	0.549991436	MULE	lure	n/a	n/a	n/a	n/a	1
13.07	0.566658684	OVERDRAFT	lure	n/a	n/a	n/a	n/a	1
13.636	0.350057975	INTRUDER	lure	n/a	n/a	n/a	n/a	1
13.986	0.403033129	ACADEMY	lure	n/a	n/a	n/a	n/a	1
14.389	0.630224913	MINER	lure	n/a	n/a	n/a	n/a	1
15.02	0.499992093	INCAPACITY	lure	n/a	n/a	n/a	n/a	1
15.52	0.599990385	SAMPLER	lure	n/a	n/a	n/a	n/a	1
16.12	0.633381694	NEPHEW	lure	n/a	n/a	n/a	n/a	1
16.753	1.016645318	MULBERRY	fruit	n/a	651	2	2	1
17.77	0.450673555	RAILWAY	lure	n/a	n/a	n/a	n/a	1
18.22	0.749259813	GAL	lure	n/a	n/a	n/a	n/a	1
18.97	0.59999149	SOLIDARITY	lure	n/a	n/a	n/a	n/a	1
19.57	0.483373673	INGESTION	lure	n/a	n/a	n/a	n/a	1
20.053	0.33327593	BUNGALOW	lure	n/a	n/a	n/a	n/a	1
20.386	0.737431658	LYRICIST	lure	n/a	n/a	n/a	n/a	1
21.124	0.729218005	FOLK	lure	n/a	n/a	n/a	n/a	1
21.853	0.55004478	COD	lure	n/a	n/a	n/a	n/a	1
22.403	0.499940533	PHYSICIST	lure	n/a	n/a	n/a	n/a	1
22.903	0.333325543	INTRO	lure	n/a	n/a	n/a	n/a	1
23.236	0.399998422	SURVIVAL	lure	n/a	n/a	n/a	n/a	1
23.636	0.53332583	SPECIALTY	lure	n/a	n/a	n/a	n/a	1
24.17	0.466716799	LOVER	lure	n/a	n/a	n/a	n/a	1
24.636	0.683345699	HAIRNET	lure	n/a	n/a	n/a	n/a	1
25.32	1.016572699	PINEAPPLE	fruit	n/a	557	2	2	1
26.336	0.33333014	BROTHEL	lure	n/a	n/a	n/a	n/a	1
26.669	0.416722111	DOWNER	lure	n/a	n/a	n/a	n/a	1
27.086	0.76659375	WINGMAN	lure	n/a	n/a	n/a	n/a	1
27.853	0.583326553	ALLOCATION	lure	n/a	n/a	n/a	n/a	1
28.436	0.700045107	ESCALATOR	lure	n/a	n/a	n/a	n/a	1
29.136	0.699935558	AEROPLANE	lure	n/a	n/a	n/a	n/a	1
29.836	0.483326378	PARTRIDGE	lure	n/a	n/a	n/a	n/a	1
30.319	0.68332113	PENDULUM	lure	n/a	n/a	n/a	n/a	1
31.003	0.335491039	RIBBING	lure	n/a	n/a	n/a	n/a	1
31.338	0.581165018	APARTHEID	lure	n/a	n/a	n/a	n/a	1
31.919	0.466661257	BLOWFISH	lure	n/a	n/a	n/a	n/a	1
32.386	0.385869734	CABIN	lure	n/a	n/a	n/a	n/a	1
32.772	0.564116558	CONSCIENCE	lure	n/a	n/a	n/a	n/a	1
33.336	0.650050943	FERRY	short	n/a	n/a	n/a	n/a	1
33.986	0.616596369	GRAD	lure	n/a	n/a	n/a	n/a	1
34.603	0.516655603	ALABASTER	lure	n/a	n/a	n/a	n/a	1
35.119	0.649997479	INTERLUDE	lure	n/a	n/a	n/a	n/a	1
35.769	0.733322367	COLLATERAL	lure	n/a	n/a	n/a	n/a	1
36.503	0.533318619	CHIC	lure	n/a	n/a	n/a	n/a	1
37.036	0.699995375	PIPETTE	lure	n/a	n/a	n/a	n/a	1
37.736	0.33338593	SKIER	lure	n/a	n/a	n/a	n/a	1
38.069	0.56665909	STANDPOINT	lure	n/a	n/a	n/a	n/a	1
38.636	0.349936448	BIRTHMARK	lure	n/a	n/a	n/a	n/a	1
38.986	0.466660749	FISHERMAN	lure	n/a	n/a	n/a	n/a	1
39.453	0.53410625	AISLE	lure	n/a	n/a	n/a	n/a	1
39.987	0.699215404	LIBERATION	lure	n/a	n/a	n/a	n/a	1
40.686	0.35005003	RERUN	lure	n/a	n/a	n/a	n/a	1
41.036	0.616597888	RULER	short	n/a	n/a	n/a	n/a	1
41.653	0.35005227	GENDER	lure	n/a	n/a	n/a	n/a	1
42.003	0.699929734	SITUATION	lure	n/a	n/a	n/a	n/a	1
42.703	0.599993345	SOUTHERNER	lure	n/a	n/a	n/a	n/a	1
43.303	0.404067445	MARQUEE	lure	n/a	n/a	n/a	n/a	1
43.707	0.699569833	JOURNALIST	lure	n/a	n/a	n/a	n/a	1
44.406	0.617568706	NECKBAND	lure	n/a	n/a	n/a	n/a	1
45.024	0.6967861	EPICENTER	lure	n/a	n/a	n/a	n/a	1
45.721	0.482024058	DORMITORY	lure	n/a	n/a	n/a	n/a	1
46.203	0.649929285	SHELF	lure	n/a	n/a	n/a	n/a	1
46.853	0.450045768	BASKETWORK	lure	n/a	n/a	n/a	n/a	1
47.303	0.44994373	ENLISTMENT	lure	n/a	n/a	n/a	n/a	1
47.753	0.649993653	SETBACK	lure	n/a	n/a	n/a	n/a	1
48.403	0.333328742	MACK	lure	n/a	n/a	n/a	n/a	1
48.736	0.65064153	VANE	lure	n/a	n/a	n/a	n/a	1
49.386	0.616007356	BOTTLE	short	n/a	n/a	n/a	n/a	1
50.002	0.41666077	CHLORIDE	lure	n/a	n/a	n/a	n/a	1
50.419	0.466720872	DEPTH	lure	n/a	n/a	n/a	n/a	1
50.886	0.733342274	CONSTRAINT	lure	n/a	n/a	n/a	n/a	1
51.619	0.634599936	ARCHER	lure	n/a	n/a	n/a	n/a	1
52.254	0.68196906	TOLERANCE	lure	n/a	n/a	n/a	n/a	1
52.936	0.51671588	DIAGRAM	lure	n/a	n/a	n/a	n/a	1
53.453	0.733310984	TRIAD	lure	n/a	n/a	n/a	n/a	1
54.186	0.633278913	CONCEPTION	lure	n/a	n/a	n/a	n/a	1
54.819	0.383327793	PAWNBROKER	lure	n/a	n/a	n/a	n/a	1
55.202	0.58339533	EMPIRE	lure	n/a	n/a	n/a	n/a	1
55.786	0.43325704	TOWNSFOLK	lure	n/a	n/a	n/a	n/a	1
56.219	0.553220651	ENIGMA	lure	n/a	n/a	n/a	n/a	1
56.772	0.73014226	WORKDAY	lure	n/a	n/a	n/a	n/a	1
57.502	0.666609654	DEPENDENCY	lure	n/a	n/a	n/a	n/a	1
58.169	2.01664096	RAINBOW	long	n/a	n/a	n/a	n/a	1
60.186	0.501514239	SILICONE	lure	n/a	n/a	n/a	n/a	1
60.687	0.331800363	AIRFORCE	lure	n/a	n/a	n/a	n/a	1
61.019	0.333332579	LIBERTY	lure	n/a	n/a	n/a	n/a	1
61.352	0.716714037	REVERSAL	lure	n/a	n/a	n/a	n/a	1
62.069	0.616644703	REVOCATION	lure	n/a	n/a	n/a	n/a	1
62.686	0.766611536	CORONATION	lure	n/a	n/a	n/a	n/a	1
63.452	0.467016318	BUGABOO	lure	n/a	n/a	n/a	n/a	1
63.919	0.618791643	LEOTARD	lure	n/a	n/a	n/a	n/a	1
64.538	0.364230357	WEEK	lure	n/a	n/a	n/a	n/a	1
64.902	0.716659458	GESTATION	lure	n/a	n/a	n/a	n/a	1
65.619	0.433265544	DIVINITY	lure	n/a	n/a	n/a	n/a	1
66.052	0.316661637	DESTINY	lure	n/a	n/a	n/a	n/a	1
66.369	2.016635103	NOVEL	long	n/a	n/a	n/a	n/a	1
68.386	0.3333913	TRIVIA	lure	n/a	n/a	n/a	n/a	1
68.719	0.467413159	FISHMONGER	lure	n/a	n/a	n/a	n/a	1
69.186	0.449175663	MUSTANG	lure	n/a	n/a	n/a	n/a	1
69.636	0.69999582	VALENTINE	lure	n/a	n/a	n/a	n/a	1
70.336	0.433328565	MARKUP	lure	n/a	n/a	n/a	n/a	1
70.769	0.449987466	OMISSION	lure	n/a	n/a	n/a	n/a	1
71.219	0.583409413	NOBLEMAN	lure	n/a	n/a	n/a	n/a	1
71.802	0.335474529	GOOBER	lure	n/a	n/a	n/a	n/a	1
72.138	0.514430328	DEPLOYMENT	lure	n/a	n/a	n/a	n/a	1
72.652	0.700063962	JELLO	lure	n/a	n/a	n/a	n/a	1
73.352	0.399919262	NETTLE	lure	n/a	n/a	n/a	n/a	1
73.752	0.316662585	ESPIONAGE	lure	n/a	n/a	n/a	n/a	1
74.069	0.64999512	TIRE	short	n/a	n/a	n/a	n/a	1
74.719	0.399995181	RELATIVIST	lure	n/a	n/a	n/a	n/a	1
75.119	0.670795471	PROM	lure	n/a	n/a	n/a	n/a	1
75.79	0.729245249	ENSEMBLE	lure	n/a	n/a	n/a	n/a	1
76.519	0.56659734	WIPER	lure	n/a	n/a	n/a	n/a	1
77.085	0.749991799	HIVE	lure	n/a	n/a	n/a	n/a	1
77.835	0.599984465	FLOODGATE	lure	n/a	n/a	n/a	n/a	1
78.435	0.583335257	UNICORN	lure	n/a	n/a	n/a	n/a	1
79.019	0.466652556	RIVERBANK	lure	n/a	n/a	n/a	n/a	1
79.485	0.666658737	SHUTTLE	lure	n/a	n/a	n/a	n/a	1
80.152	0.666656754	OCTAGON	lure	n/a	n/a	n/a	n/a	1
80.819	0.616658673	ADVISEMENT	lure	n/a	n/a	n/a	n/a	1
81.435	0.383331345	SCUT	lure	n/a	n/a	n/a	n/a	1
81.819	0.533384188	PEDIGREE	lure	n/a	n/a	n/a	n/a	1
82.352	2.01657915	DITCH	long	n/a	n/a	n/a	n/a	1
84.369	0.766653436	PILLOWCASE	lure	n/a	n/a	n/a	n/a	1
85.135	0.466704945	POMPOM	lure	n/a	n/a	n/a	n/a	1
85.602	0.699941162	JURY	lure	n/a	n/a	n/a	n/a	1
86.302	0.366712623	HOGSHEAD	lure	n/a	n/a	n/a	n/a	1
86.669	0.349995137	GENIE	lure	n/a	n/a	n/a	n/a	1
87.019	0.654324803	SAUCE	lure	n/a	n/a	n/a	n/a	1
87.673	0.397782829	LEGEND	lure	n/a	n/a	n/a	n/a	1
88.071	0.331155585	TROUT	lure	n/a	n/a	n/a	n/a	1
88.402	0.633329986	COMPILER	lure	n/a	n/a	n/a	n/a	1
89.035	0.516658171	RAINFALL	lure	n/a	n/a	n/a	n/a	1
89.552	0.566659368	SATIN	lure	n/a	n/a	n/a	n/a	1
90.119	0.549991625	TASKMASTER	lure	n/a	n/a	n/a	n/a	1
90.669	1.019104501	BLUEBERRY	fruit	n/a	608	2	2	1
91.688	0.464209267	DILEMMA	lure	n/a	n/a	n/a	n/a	1
92.152	0.450041195	EVASION	lure	n/a	n/a	n/a	n/a	1
92.602	0.483325694	UPSHOT	lure	n/a	n/a	n/a	n/a	1
93.085	0.71660974	PARAFFIN	lure	n/a	n/a	n/a	n/a	1
93.802	0.483323751	STEPSON	lure	n/a	n/a	n/a	n/a	1
94.285	0.399995031	TIMEPIECE	lure	n/a	n/a	n/a	n/a	1
94.685	0.350039421	HENCHMAN	lure	n/a	n/a	n/a	n/a	1
95.035	0.449949995	KNOCKDOWN	lure	n/a	n/a	n/a	n/a	1
95.485	0.366718032	COUNSELOR	lure	n/a	n/a	n/a	n/a	1
95.852	0.366606047	BOPPER	lure	n/a	n/a	n/a	n/a	1
96.219	0.483325091	SEDGE	lure	n/a	n/a	n/a	n/a	1
96.702	0.416706362	WIZARDRY	lure	n/a	n/a	n/a	n/a	1
97.119	0.466661513	BOMBSHELL	lure	n/a	n/a	n/a	n/a	1
97.585	0.70272579	ANALYZER	lure	n/a	n/a	n/a	n/a	1
98.288	0.717573364	FINESSE	lure	n/a	n/a	n/a	n/a	1
99.006	2.013596026	PARCEL	long	n/a	n/a	n/a	n/a	1
101.019	0.717796844	ONLOOKER	lure	n/a	n/a	n/a	n/a	1
101.737	0.598195102	INNOVATOR	lure	n/a	n/a	n/a	n/a	1
102.335	0.383371342	VORTEX	lure	n/a	n/a	n/a	n/a	1
102.718	0.383284099	OVERLAY	lure	n/a	n/a	n/a	n/a	1
103.102	0.716657102	PARADOX	lure	n/a	n/a	n/a	n/a	1
103.818	0.683368513	TEMPEST	lure	n/a	n/a	n/a	n/a	1
104.502	0.366615781	HAKE	lure	n/a	n/a	n/a	n/a	1
104.868	0.416659808	KEEPSAKE	lure	n/a	n/a	n/a	n/a	1
105.285	0.383329498	DONKEY	lure	n/a	n/a	n/a	n/a	1
105.668	0.566702929	LANE	lure	n/a	n/a	n/a	n/a	1
106.235	0.633275622	COBWEB	lure	n/a	n/a	n/a	n/a	1
106.868	0.383331428	ROSEBUSH	lure	n/a	n/a	n/a	n/a	1
107.252	0.616659364	MATTRESS	short	n/a	n/a	n/a	n/a	1
107.868	0.350781799	MATURATION	lure	n/a	n/a	n/a	n/a	1
108.219	0.720569532	DUSTPAN	lure	n/a	n/a	n/a	n/a	1
108.94	0.395338418	GENETICIST	lure	n/a	n/a	n/a	n/a	1
109.335	0.633339898	CLIMATE	lure	n/a	n/a	n/a	n/a	1
109.968	0.566592377	CERTAINTY	lure	n/a	n/a	n/a	n/a	1
110.535	0.699997028	CABARET	lure	n/a	n/a	n/a	n/a	1
111.235	0.433326897	RELIANCE	lure	n/a	n/a	n/a	n/a	1
111.668	0.669299686	LADYBIRD	lure	n/a	n/a	n/a	n/a	1
112.338	0.347347938	HICKORY	lure	n/a	n/a	n/a	n/a	1
112.685	0.699993927	DUNE	lure	n/a	n/a	n/a	n/a	1
113.385	0.450049774	MYTH	lure	n/a	n/a	n/a	n/a	1
113.835	0.733266077	REPROACH	lure	n/a	n/a	n/a	n/a	1
114.568	0.36671752	PALLBEARER	lure	n/a	n/a	n/a	n/a	1
114.935	0.749989499	DENIAL	lure	n/a	n/a	n/a	n/a	1
115.685	2.016578892	FOSSIL	long	n/a	n/a	n/a	n/a	1
117.702	0.433331293	BICYCLE	lure	n/a	n/a	n/a	n/a	1
118.135	0.616658071	CARTON	lure	n/a	n/a	n/a	n/a	1
118.752	0.666656118	KITCHEN	lure	n/a	n/a	n/a	n/a	1
119.418	0.59999218	PRODIGY	lure	n/a	n/a	n/a	n/a	1
120.018	0.533326499	STUPOR	lure	n/a	n/a	n/a	n/a	1
120.552	0.633325777	DISCORD	lure	n/a	n/a	n/a	n/a	1
121.185	0.566658308	SECURITY	lure	n/a	n/a	n/a	n/a	1
121.751	0.349992013	FALSITY	lure	n/a	n/a	n/a	n/a	1
122.101	0.399994189	COMMITTAL	lure	n/a	n/a	n/a	n/a	1
122.501	0.599992049	DEBILITATE	lure	n/a	n/a	n/a	n/a	1
123.101	0.366663432	RABBI	lure	n/a	n/a	n/a	n/a	1
123.468	0.433325291	DEER	lure	n/a	n/a	n/a	n/a	1
123.901	0.616659631	MIRROR	short	n/a	n/a	n/a	n/a	1
124.518	0.749988143	POINSETTIA	lure	n/a	n/a	n/a	n/a	1
125.268	0.716657147	DOGMATISM	lure	n/a	n/a	n/a	n/a	1
125.985	0.46666019	AUTOPSY	lure	n/a	n/a	n/a	n/a	1
126.451	0.399994712	COGNITION	lure	n/a	n/a	n/a	n/a	1
126.851	0.466658764	PROTECTOR	lure	n/a	n/a	n/a	n/a	1
127.318	0.699989568	GRAM	lure	n/a	n/a	n/a	n/a	1
128.018	0.483328416	GEOGRAPHY	lure	n/a	n/a	n/a	n/a	1
128.501	0.716657758	DILUTION	lure	n/a	n/a	n/a	n/a	1
129.218	0.349993185	FACTORY	lure	n/a	n/a	n/a	n/a	1
129.568	0.566717358	DANDRUFF	lure	n/a	n/a	n/a	n/a	1
130.135	0.666644366	SYMPHONY	lure	n/a	n/a	n/a	n/a	1
130.801	0.750002239	FAD	lure	n/a	n/a	n/a	n/a	1
131.551	0.666657872	QUEST	lure	n/a	n/a	n/a	n/a	1
132.218	1.02016461	GOOSEBERRY	fruit	n/a	611	2	2	1
133.238	0.379802967	BIRDIE	lure	n/a	n/a	n/a	n/a	1
133.618	0.436237748	GRANDSTAND	lure	n/a	n/a	n/a	n/a	1
134.054	0.347037486	INSIGHT	lure	n/a	n/a	n/a	n/a	1
134.401	0.616716386	SUBVERSION	lure	n/a	n/a	n/a	n/a	1
135.018	0.733312502	COUNTDOWN	lure	n/a	n/a	n/a	n/a	1
135.751	0.766610234	GREEn/aOOM	lure	n/a	n/a	n/a	n/a	1
136.518	0.550034922	DECORUM	lure	n/a	n/a	n/a	n/a	1
137.068	0.633279784	NECTAR	lure	n/a	n/a	n/a	n/a	1
137.701	0.383330569	BEAST	lure	n/a	n/a	n/a	n/a	1
138.085	0.31672092	IDEOLOGY	lure	n/a	n/a	n/a	n/a	1
138.401	0.61659665	WARLOCK	lure	n/a	n/a	n/a	n/a	1
139.018	0.733381437	STAIRWELL	lure	n/a	n/a	n/a	n/a	1
139.751	0.716600515	LIEU	lure	n/a	n/a	n/a	n/a	1
140.468	0.61665641	DUST	short	n/a	n/a	n/a	n/a	1
141.085	0.433325276	HANDSAW	lure	n/a	n/a	n/a	n/a	1
141.518	0.383328302	FULLBACK	lure	n/a	n/a	n/a	n/a	1
141.901	0.549995176	QUOTATION	lure	n/a	n/a	n/a	n/a	1
142.451	0.483324989	CATTLE	lure	n/a	n/a	n/a	n/a	1
142.935	0.33332908	VISIBILITY	lure	n/a	n/a	n/a	n/a	1
143.268	0.699990586	TEACUP	lure	n/a	n/a	n/a	n/a	1
143.968	0.666656213	CURVATURE	lure	n/a	n/a	n/a	n/a	1
144.634	0.683322448	DUPLICITY	lure	n/a	n/a	n/a	n/a	1
145.318	0.749991201	LOOPHOLE	lure	n/a	n/a	n/a	n/a	1
146.068	0.699990829	EASEMENT	lure	n/a	n/a	n/a	n/a	1
146.768	0.383468253	REPOSITORY	lure	n/a	n/a	n/a	n/a	1
147.151	0.716514779	BOBTAIL	lure	n/a	n/a	n/a	n/a	1
147.868	0.449993872	MUTUALITY	lure	n/a	n/a	n/a	n/a	1
148.318	0.566657689	CONFESSION	lure	n/a	n/a	n/a	n/a	1
148.884	0.616660127	TEAR	short	n/a	n/a	n/a	n/a	1
149.501	0.637510416	CESSION	lure	n/a	n/a	n/a	n/a	1
150.139	0.462474138	EMBASSY	lure	n/a	n/a	n/a	n/a	1
150.601	0.66665502	HYDRANT	lure	n/a	n/a	n/a	n/a	1
151.268	0.683323273	ROADBED	lure	n/a	n/a	n/a	n/a	1
151.951	0.34999632	AUNT	lure	n/a	n/a	n/a	n/a	1
152.301	0.616657217	BONNET	lure	n/a	n/a	n/a	n/a	1
152.918	0.399995718	JUICE	lure	n/a	n/a	n/a	n/a	1
153.318	0.466659728	ALLURE	lure	n/a	n/a	n/a	n/a	1
153.784	0.653709303	HILLBILLY	lure	n/a	n/a	n/a	n/a	1
154.438	0.496274909	YAM	lure	n/a	n/a	n/a	n/a	1
154.934	0.549992068	MURAL	lure	n/a	n/a	n/a	n/a	1
155.484	0.766656534	DEFECTION	lure	n/a	n/a	n/a	n/a	1
156.251	0.583323501	SNAPBACK	lure	n/a	n/a	n/a	n/a	1
156.834	0.699990771	DOLPHIN	lure	n/a	n/a	n/a	n/a	1
157.534	2.016640974	TAPE	long	n/a	n/a	n/a	n/a	1
159.551	0.566656003	PAINKILLER	lure	n/a	n/a	n/a	n/a	1
160.118	0.416659549	ROLE	lure	n/a	n/a	n/a	n/a	1
160.534	0.499991014	EMPEROR	lure	n/a	n/a	n/a	n/a	1
161.034	0.549992366	HIGHWAYMAN	lure	n/a	n/a	n/a	n/a	1
161.584	0.633325259	JUNCTION	lure	n/a	n/a	n/a	n/a	1
162.218	0.433329444	BROTH	lure	n/a	n/a	n/a	n/a	1
162.651	0.633325872	BELLHOP	lure	n/a	n/a	n/a	n/a	1
163.284	0.533322169	TERROR	lure	n/a	n/a	n/a	n/a	1
163.818	0.583330315	BRIEFCASE	lure	n/a	n/a	n/a	n/a	1
164.401	0.3666535	CLOWN	lure	n/a	n/a	n/a	n/a	1
164.768	0.499997953	OFFSPRING	lure	n/a	n/a	n/a	n/a	1
165.268	0.733321561	HEALTH	lure	n/a	n/a	n/a	n/a	1
166.001	0.616661951	PIANO	short	n/a	n/a	n/a	n/a	1
166.618	0.333323779	STARLIGHT	lure	n/a	n/a	n/a	n/a	1
166.951	0.399996802	KINGDOM	lure	n/a	n/a	n/a	n/a	1
167.351	0.6666555	TORT	lure	n/a	n/a	n/a	n/a	1
168.017	0.733326773	APPROVAL	lure	n/a	n/a	n/a	n/a	1
168.751	0.583321656	FIXTURE	lure	n/a	n/a	n/a	n/a	1
169.334	0.733324803	TWILIGHT	lure	n/a	n/a	n/a	n/a	1
170.067	0.466661869	HEIGHT	lure	n/a	n/a	n/a	n/a	1
170.534	0.39999372	UTOPIA	lure	n/a	n/a	n/a	n/a	1
170.934	0.616657661	BREADLINE	lure	n/a	n/a	n/a	n/a	1
171.551	0.566656288	CHECKUP	lure	n/a	n/a	n/a	n/a	1
172.117	0.549992904	EXUBERANCE	lure	n/a	n/a	n/a	n/a	1
172.667	0.366660027	NIGHTSHIRT	lure	n/a	n/a	n/a	n/a	1
173.034	0.587413677	MISDEED	lure	n/a	n/a	n/a	n/a	1
173.622	0.583563069	RESALE	lure	n/a	n/a	n/a	n/a	1
174.205	0.662331802	BARTENDER	lure	n/a	n/a	n/a	n/a	1
174.867	1.018035608	MELON	fruit	n/a	737	2	2	1
175.885	0.498610237	REALISM	lure	n/a	n/a	n/a	n/a	1
176.384	0.733323036	TEMPERANCE	lure	n/a	n/a	n/a	n/a	1
177.117	0.633324871	CABDRIVER	lure	n/a	n/a	n/a	n/a	1
177.751	0.633323203	ENTICEMENT	lure	n/a	n/a	n/a	n/a	1
178.384	0.449993163	WASHER	lure	n/a	n/a	n/a	n/a	1
178.834	0.435323948	ART	lure	n/a	n/a	n/a	n/a	1
179.269	0.631330168	ANGLER	lure	n/a	n/a	n/a	n/a	1
179.901	0.433325712	BIB	lure	n/a	n/a	n/a	n/a	1
180.334	0.466659531	BELLFLOWER	lure	n/a	n/a	n/a	n/a	1
180.801	0.616657613	CLINIC	lure	n/a	n/a	n/a	n/a	1
181.417	0.433327059	HERBIVORE	lure	n/a	n/a	n/a	n/a	1
181.851	0.749990738	GOWN	lure	n/a	n/a	n/a	n/a	1
182.601	0.533321775	RECITATION	lure	n/a	n/a	n/a	n/a	1
183.134	2.01664215	CART	long	n/a	n/a	n/a	n/a	1
185.151	0.683322195	MERCER	lure	n/a	n/a	n/a	n/a	1
185.834	0.633325843	MOLECULE	lure	n/a	n/a	n/a	n/a	1
186.467	0.33333105	DIPPER	lure	n/a	n/a	n/a	n/a	1
186.801	0.399990878	EXPO	lure	n/a	n/a	n/a	n/a	1
187.201	0.566659672	AFTERCARE	lure	n/a	n/a	n/a	n/a	1
187.767	0.749989309	AMP	lure	n/a	n/a	n/a	n/a	1
188.517	0.466659523	TEA	lure	n/a	n/a	n/a	n/a	1
188.984	0.617058927	COLLIE	lure	n/a	n/a	n/a	n/a	1
189.601	0.682924858	HAT	lure	n/a	n/a	n/a	n/a	1
190.284	0.333325625	MORPHOLOGY	lure	n/a	n/a	n/a	n/a	1
190.617	0.599992076	VAGABOND	lure	n/a	n/a	n/a	n/a	1
191.217	2.016641335	CABLE	long	n/a	n/a	n/a	n/a	1
193.234	0.36666019	CAUSALITY	lure	n/a	n/a	n/a	n/a	1
193.6	0.766656055	VALE	lure	n/a	n/a	n/a	n/a	1
194.367	0.749988008	CHAIRMAN	lure	n/a	n/a	n/a	n/a	1
195.117	0.599993007	CITIZEN	lure	n/a	n/a	n/a	n/a	1
195.717	0.683323067	SLED	lure	n/a	n/a	n/a	n/a	1
196.4	0.633324236	DUNGEON	lure	n/a	n/a	n/a	n/a	1
197.034	0.433328184	WEIRDO	lure	n/a	n/a	n/a	n/a	1
197.467	0.633325444	MANTLE	lure	n/a	n/a	n/a	n/a	1
198.1	0.649989251	PREFERENCE	lure	n/a	n/a	n/a	n/a	1
198.75	0.383326778	TANDEM	lure	n/a	n/a	n/a	n/a	1
199.134	0.616658939	CLOAK	short	n/a	n/a	n/a	n/a	1
199.75	0.533324589	ROLLER	lure	n/a	n/a	n/a	n/a	1
200.284	0.466659721	CARNIVORE	lure	n/a	n/a	n/a	n/a	1
200.75	0.36666306	VENGEANCE	lure	n/a	n/a	n/a	n/a	1
201.117	0.699989861	PAINTWORK	lure	n/a	n/a	n/a	n/a	1
201.817	0.483327007	BAKERY	lure	n/a	n/a	n/a	n/a	1
202.3	0.416660915	NIECE	lure	n/a	n/a	n/a	n/a	1
202.717	0.666657186	REVENUE	lure	n/a	n/a	n/a	n/a	1
203.384	0.749988476	MIDST	lure	n/a	n/a	n/a	n/a	1
204.134	0.721227714	UNCONCERN	lure	n/a	n/a	n/a	n/a	1
204.855	0.69542254	TEARJERKER	lure	n/a	n/a	n/a	n/a	1
205.55	0.766653619	WINDFALL	lure	n/a	n/a	n/a	n/a	1
206.317	0.46665824	PILGRIM	lure	n/a	n/a	n/a	n/a	1
206.784	0.399994939	EXCUSE	lure	n/a	n/a	n/a	n/a	1
207.184	1.016651989	LIME	fruit	n/a	853	2	2	1
208.2	0.48332829	SHORTSTOP	lure	n/a	n/a	n/a	n/a	1
208.684	0.383326558	FLUTIST	lure	n/a	n/a	n/a	n/a	1
209.067	0.683324927	PESTICIDE	lure	n/a	n/a	n/a	n/a	1
209.75	0.733320484	FATHERLAND	lure	n/a	n/a	n/a	n/a	1
210.484	0.61665658	STREET	lure	n/a	n/a	n/a	n/a	1
211.1	0.416659161	SENDER	lure	n/a	n/a	n/a	n/a	1
211.517	0.366665721	PEDESTAL	lure	n/a	n/a	n/a	n/a	1
211.884	0.516658355	DISC	lure	n/a	n/a	n/a	n/a	1
212.4	0.749990354	CILIA	lure	n/a	n/a	n/a	n/a	1
213.15	0.466661316	CLARITY	lure	n/a	n/a	n/a	n/a	1
213.617	0.533324195	DOGCATCHER	lure	n/a	n/a	n/a	n/a	1
214.15	0.333329045	CHAPERONE	lure	n/a	n/a	n/a	n/a	1
214.484	0.486733271	WINDJAMMER	lure	n/a	n/a	n/a	n/a	1
214.97	0.513254589	MAMBA	lure	n/a	n/a	n/a	n/a	1
215.483	2.016639753	BARREL	long	n/a	n/a	n/a	n/a	1
217.5	0.449991148	EYETEETH	lure	n/a	n/a	n/a	n/a	1
217.95	0.683325995	BLOWPIPE	lure	n/a	n/a	n/a	n/a	1
218.633	0.63332171	QUAD	lure	n/a	n/a	n/a	n/a	1
219.267	0.466656939	DIGRESSION	lure	n/a	n/a	n/a	n/a	1
219.733	0.500052039	ARTISAN	lure	n/a	n/a	n/a	n/a	1
220.233	0.366606548	TRADITION	lure	n/a	n/a	n/a	n/a	1
220.6	0.750043472	CONCEPT	lure	n/a	n/a	n/a	n/a	1
221.35	0.566659065	MINORITY	lure	n/a	n/a	n/a	n/a	1
221.917	0.599936317	DIVIDER	lure	n/a	n/a	n/a	n/a	1
222.517	0.416659895	PARODY	lure	n/a	n/a	n/a	n/a	1
222.933	0.383329616	WATERFRONT	lure	n/a	n/a	n/a	n/a	1
223.317	0.699984901	PATCHWORK	lure	n/a	n/a	n/a	n/a	1
224.017	0.733325299	CANOPY	lure	n/a	n/a	n/a	n/a	1
224.75	0.316724963	SHRUB	lure	n/a	n/a	n/a	n/a	1
225.067	0.383267641	DIRECTOR	lure	n/a	n/a	n/a	n/a	1
225.45	0.518601788	SMOKER	lure	n/a	n/a	n/a	n/a	1
225.969	0.531379487	CRITIC	lure	n/a	n/a	n/a	n/a	1
226.5	n/a	HARDTACK	lure	n/a	n/a	n/a	n/a	1
238.017	0.416659677	POLITICIAN	lure	n/a	n/a	n/a	n/a	1
238.433	0.549995226	NOTION	lure	n/a	n/a	n/a	n/a	1
238.983	0.683322701	DOORSTEP	lure	n/a	n/a	n/a	n/a	1
239.666	0.433327123	LOGARITHM	lure	n/a	n/a	n/a	n/a	1
240.1	0.416660242	COUCH	lure	n/a	n/a	n/a	n/a	1
240.516	0.316664005	HOTHEAD	lure	n/a	n/a	n/a	n/a	1
240.833	0.550046005	GILL	lure	n/a	n/a	n/a	n/a	1
241.383	0.416605394	MECHANISM	lure	n/a	n/a	n/a	n/a	1
241.8	0.616659442	TEAR	short	n/a	n/a	n/a	n/a	1
242.416	0.416719512	SIDEBOARD	lure	n/a	n/a	n/a	n/a	1
242.833	0.333266929	MILLSTONE	lure	n/a	n/a	n/a	n/a	1
243.166	0.616717992	HERMIT	lure	n/a	n/a	n/a	n/a	1
243.783	0.483268047	RUBRIC	lure	n/a	n/a	n/a	n/a	1
244.266	0.316661552	TRACHEA	lure	n/a	n/a	n/a	n/a	1
244.583	0.750044995	MONTH	lure	n/a	n/a	n/a	n/a	1
245.333	0.666600326	POSSESSION	lure	n/a	n/a	n/a	n/a	1
246	0.466662611	BRACELET	lure	n/a	n/a	n/a	n/a	1
246.466	0.749990595	RICE	lure	n/a	n/a	n/a	n/a	1
247.216	0.699989966	POLYESTER	lure	n/a	n/a	n/a	n/a	1
247.916	0.666654998	TRACT	lure	n/a	n/a	n/a	n/a	1
248.583	0.366657837	WEALTH	lure	n/a	n/a	n/a	n/a	1
248.95	0.516664616	COUNCILMAN	lure	n/a	n/a	n/a	n/a	1
249.466	0.633378655	SHELLFISH	lure	n/a	n/a	n/a	n/a	1
250.1	2.016586145	NOVEL	long	n/a	n/a	n/a	n/a	1
252.116	0.583322062	MILITANCY	lure	n/a	n/a	n/a	n/a	1
252.7	0.516661061	RESPONSE	lure	n/a	n/a	n/a	n/a	1
253.216	0.633324307	BEHAVIOR	lure	n/a	n/a	n/a	n/a	1
253.85	0.399993121	MOVEMENT	lure	n/a	n/a	n/a	n/a	1
254.25	0.717986633	INTIMACY	lure	n/a	n/a	n/a	n/a	1
254.968	0.748657191	TABOO	lure	n/a	n/a	n/a	n/a	1
255.716	0.333331807	BULLRING	lure	n/a	n/a	n/a	n/a	1
256.05	0.366658507	INCREASE	lure	n/a	n/a	n/a	n/a	1
256.416	0.450039823	FURNITURE	lure	n/a	n/a	n/a	n/a	1
256.866	0.633324447	REFINEMENT	lure	n/a	n/a	n/a	n/a	1
257.5	0.616613201	DIVA	lure	n/a	n/a	n/a	n/a	1
258.116	0.433327567	TEXT	lure	n/a	n/a	n/a	n/a	1
258.55	0.616657289	MATTRESS	short	n/a	n/a	n/a	n/a	1
259.166	0.583325057	TAXATION	lure	n/a	n/a	n/a	n/a	1
259.75	0.650035812	COERCION	lure	n/a	n/a	n/a	n/a	1
260.4	0.433345677	FIREWATER	lure	n/a	n/a	n/a	n/a	1
260.833	0.399932016	PROCURATOR	lure	n/a	n/a	n/a	n/a	1
261.233	0.367132477	ISOLATION	lure	n/a	n/a	n/a	n/a	1
261.6	0.349523282	WHISKEY	lure	n/a	n/a	n/a	n/a	1
261.95	0.450040914	PEPTIDE	lure	n/a	n/a	n/a	n/a	1
262.4	0.433329444	LADYBUG	lure	n/a	n/a	n/a	n/a	1
262.833	0.583275603	SUCCESSOR	lure	n/a	n/a	n/a	n/a	1
263.416	0.333325547	CONJUNCT	lure	n/a	n/a	n/a	n/a	1
263.749	0.466661739	HOUSEBOY	lure	n/a	n/a	n/a	n/a	1
264.216	0.733320845	SONATA	lure	n/a	n/a	n/a	n/a	1
264.949	0.499996713	AMENITY	lure	n/a	n/a	n/a	n/a	1
265.449	0.483327054	GODSON	lure	n/a	n/a	n/a	n/a	1
265.933	0.333329319	AMOEBA	lure	n/a	n/a	n/a	n/a	1
266.266	0.616658532	PIANO	short	n/a	n/a	n/a	n/a	1
266.883	0.700046854	GRENADINE	lure	n/a	n/a	n/a	n/a	1
267.583	0.749977544	WORKROOM	lure	n/a	n/a	n/a	n/a	1
268.333	0.585667082	BASSINET	lure	n/a	n/a	n/a	n/a	1
268.918	0.414274337	EDUCATOR	lure	n/a	n/a	n/a	n/a	1
269.333	0.583322894	MOPED	lure	n/a	n/a	n/a	n/a	1
269.916	0.716656831	MILLENIUM	lure	n/a	n/a	n/a	n/a	1
270.633	0.616716743	FRAMER	lure	n/a	n/a	n/a	n/a	1
271.249	0.366658335	RETRIAL	lure	n/a	n/a	n/a	n/a	1
271.616	0.466598981	MEATBALL	lure	n/a	n/a	n/a	n/a	1
272.083	0.683330502	DAIRY	lure	n/a	n/a	n/a	n/a	1
272.766	0.433325434	ULCERATION	lure	n/a	n/a	n/a	n/a	1
273.199	0.666657588	GANGWAY	lure	n/a	n/a	n/a	n/a	1
273.866	0.566653424	MULLET	lure	n/a	n/a	n/a	n/a	1
274.433	1.016661408	CANTELOUPE	fruit	n/a	788	2	2	1
275.449	0.63332284	RHAPSODY	lure	n/a	n/a	n/a	n/a	1
276.083	0.61668049	DUPLEX	lure	n/a	n/a	n/a	n/a	1
276.699	0.416635234	UNIVERSE	lure	n/a	n/a	n/a	n/a	1
277.116	0.550050767	CATARACT	lure	n/a	n/a	n/a	n/a	1
277.666	0.333266386	TOLERATION	lure	n/a	n/a	n/a	n/a	1
277.999	0.633329419	SULTAN	lure	n/a	n/a	n/a	n/a	1
278.633	0.737225762	FOXHOLE	lure	n/a	n/a	n/a	n/a	1
279.37	0.662754968	CLOTHESPIN	lure	n/a	n/a	n/a	n/a	1
280.033	0.68332112	HELMET	lure	n/a	n/a	n/a	n/a	1
280.716	0.683325594	SMITH	lure	n/a	n/a	n/a	n/a	1
281.399	0.749983926	EMERGENCY	lure	n/a	n/a	n/a	n/a	1
282.149	0.350055357	BETRAYER	lure	n/a	n/a	n/a	n/a	1
282.499	2.049915871	RAINBOW	long	n/a	n/a	n/a	n/a	1
284.549	0.733320815	CANTEEN	lure	n/a	n/a	n/a	n/a	1
285.283	0.75003548	EXPORT	lure	n/a	n/a	n/a	n/a	1
286.033	0.583282603	GOBBLER	lure	n/a	n/a	n/a	n/a	1
286.616	0.499992976	ANVIL	lure	n/a	n/a	n/a	n/a	1
287.116	0.7499888	VAN	lure	n/a	n/a	n/a	n/a	1
287.866	0.516706588	DECIBEL	lure	n/a	n/a	n/a	n/a	1
288.383	0.449992553	SPECIMEN	lure	n/a	n/a	n/a	n/a	1
288.833	0.666610158	NUMERATOR	lure	n/a	n/a	n/a	n/a	1
289.499	0.583325185	DUCT	lure	n/a	n/a	n/a	n/a	1
290.082	0.650051015	OUTFIELDER	lure	n/a	n/a	n/a	n/a	1
290.732	0.616592708	MIRROR	short	n/a	n/a	n/a	n/a	1
291.349	0.533329875	JEEP	lure	n/a	n/a	n/a	n/a	1
291.882	0.366661957	MINK	lure	n/a	n/a	n/a	n/a	1
292.249	0.316707216	FALLOFF	lure	n/a	n/a	n/a	n/a	1
292.566	0.549990942	PARTICLE	lure	n/a	n/a	n/a	n/a	1
293.116	0.449950928	VANITY	lure	n/a	n/a	n/a	n/a	1
293.566	0.683322375	HECK	lure	n/a	n/a	n/a	n/a	1
294.249	0.516663289	PARTAKER	lure	n/a	n/a	n/a	n/a	1
294.766	0.416658545	BASILICA	lure	n/a	n/a	n/a	n/a	1
295.182	0.550037634	MILLILITER	lure	n/a	n/a	n/a	n/a	1
295.732	0.733279667	PALATE	lure	n/a	n/a	n/a	n/a	1
296.466	0.516654227	DETERRENT	lure	n/a	n/a	n/a	n/a	1
296.982	0.466663784	PRETENSE	lure	n/a	n/a	n/a	n/a	1
297.449	0.716714786	FEATHERBED	lure	n/a	n/a	n/a	n/a	1
298.166	0.716653139	NITWIT	lure	n/a	n/a	n/a	n/a	1
298.882	1.016595179	ORANGE	fruit	n/a	602	2	2	1
299.899	0.699991436	STATISTIC	lure	n/a	n/a	n/a	n/a	1
300.599	0.56666	WRIST	lure	n/a	n/a	n/a	n/a	1
301.166	0.316705644	PUN	lure	n/a	n/a	n/a	n/a	1
301.482	0.733276239	TENT	lure	n/a	n/a	n/a	n/a	1
302.216	0.683327033	ZEAL	lure	n/a	n/a	n/a	n/a	1
302.899	0.583323658	EXCLUSION	lure	n/a	n/a	n/a	n/a	1
303.482	0.533325569	TAB	lure	n/a	n/a	n/a	n/a	1
304.016	0.633324824	TREASURE	lure	n/a	n/a	n/a	n/a	1
304.649	0.516659143	STAKEOUT	lure	n/a	n/a	n/a	n/a	1
305.166	0.399995056	HOUSEMAID	lure	n/a	n/a	n/a	n/a	1
305.566	0.48332724	ABSENCE	lure	n/a	n/a	n/a	n/a	1
306.049	0.56665926	DOWNPOUR	lure	n/a	n/a	n/a	n/a	1
306.616	0.483324317	JUDICIARY	lure	n/a	n/a	n/a	n/a	1
307.099	2.066636688	TAPE	long	n/a	n/a	n/a	n/a	1
309.166	0.549993699	GRAIL	lure	n/a	n/a	n/a	n/a	1
309.716	0.649987805	THROAT	lure	n/a	n/a	n/a	n/a	1
310.365	0.583324947	INDIGNITY	lure	n/a	n/a	n/a	n/a	1
310.949	0.666657456	CONCOCTION	lure	n/a	n/a	n/a	n/a	1
311.615	0.616660472	CAMISOLE	lure	n/a	n/a	n/a	n/a	1
312.232	0.418682402	WATCHMEN	lure	n/a	n/a	n/a	n/a	1
312.651	0.331308409	BANISTER	lure	n/a	n/a	n/a	n/a	1
312.982	0.399987459	BIRTHRATE	lure	n/a	n/a	n/a	n/a	1
313.382	0.333333639	PRIMACY	lure	n/a	n/a	n/a	n/a	1
313.715	0.666656474	LOON	lure	n/a	n/a	n/a	n/a	1
314.382	0.383329771	ANTENNAE	lure	n/a	n/a	n/a	n/a	1
314.765	0.333328952	BACKACHE	lure	n/a	n/a	n/a	n/a	1
315.099	0.616657362	CLOAK	short	n/a	n/a	n/a	n/a	1
315.715	0.434291545	REFINER	lure	n/a	n/a	n/a	n/a	1
316.15	0.632571844	PEACEMAKER	lure	n/a	n/a	n/a	n/a	1
316.782	0.433115835	DOVE	lure	n/a	n/a	n/a	n/a	1
317.215	0.716655871	HOMAGE	lure	n/a	n/a	n/a	n/a	1
317.932	0.566658787	DISLOYALTY	lure	n/a	n/a	n/a	n/a	1
318.499	0.683324716	FASTENER	lure	n/a	n/a	n/a	n/a	1
319.182	0.533325063	COSTUMER	lure	n/a	n/a	n/a	n/a	1
319.715	0.366810956	INTERCOM	lure	n/a	n/a	n/a	n/a	1
320.082	0.666507703	RESCUER	lure	n/a	n/a	n/a	n/a	1
320.749	0.749989366	WORKHORSE	lure	n/a	n/a	n/a	n/a	1
321.499	0.549987766	SLOWPOKE	lure	n/a	n/a	n/a	n/a	1
322.049	0.533329781	CORNMEAL	lure	n/a	n/a	n/a	n/a	1
322.582	0.73332109	ICEPACK	lure	n/a	n/a	n/a	n/a	1
323.315	0.534775333	SOJOURNER	lure	n/a	n/a	n/a	n/a	1
323.85	2.015192222	DITCH	long	n/a	n/a	n/a	n/a	1
325.865	0.466658707	PERSONAGE	lure	n/a	n/a	n/a	n/a	1
326.332	0.733383928	PICNIC	lure	n/a	n/a	n/a	n/a	1
327.065	0.533265289	INCEPTION	lure	n/a	n/a	n/a	n/a	1
327.599	0.350038072	GYPSY	lure	n/a	n/a	n/a	n/a	1
327.949	0.5166157	BISON	lure	n/a	n/a	n/a	n/a	1
328.465	0.670785544	VEHICLE	lure	n/a	n/a	n/a	n/a	1
329.136	0.545862576	KETCHUP	lure	n/a	n/a	n/a	n/a	1
329.682	0.700051726	VOLATILITY	lure	n/a	n/a	n/a	n/a	1
330.382	0.716597355	BEDSPREAD	lure	n/a	n/a	n/a	n/a	1
331.099	0.733368665	SWATCH	lure	n/a	n/a	n/a	n/a	1
331.832	0.649945033	GASMASK	lure	n/a	n/a	n/a	n/a	1
332.482	0.666654306	FERRY	short	n/a	n/a	n/a	n/a	1
333.149	0.466663177	DEFINITION	lure	n/a	n/a	n/a	n/a	1
333.615	0.699989017	ARCHBISHOP	lure	n/a	n/a	n/a	n/a	1
334.315	0.75004785	PUPPY	lure	n/a	n/a	n/a	n/a	1
335.065	0.316604975	SUFFERER	lure	n/a	n/a	n/a	n/a	1
335.382	0.400047663	DOLLY	lure	n/a	n/a	n/a	n/a	1
335.782	0.383273643	COURTIER	lure	n/a	n/a	n/a	n/a	1
336.165	0.686710328	SUMMIT	lure	n/a	n/a	n/a	n/a	1
336.852	0.546663875	INTENT	lure	n/a	n/a	n/a	n/a	1
337.399	0.616599352	MOCHA	lure	n/a	n/a	n/a	n/a	1
338.015	0.583325999	REDWOOD	lure	n/a	n/a	n/a	n/a	1
338.598	0.599991859	DOMICILE	lure	n/a	n/a	n/a	n/a	1
339.198	0.533326562	SPARROW	lure	n/a	n/a	n/a	n/a	1
339.732	0.566702721	LAMPLIGHT	lure	n/a	n/a	n/a	n/a	1
340.298	0.568078266	DOGGY	lure	n/a	n/a	n/a	n/a	1
340.867	2.015174648	CART	long	n/a	n/a	n/a	n/a	1
342.882	0.733321542	INFLOW	lure	n/a	n/a	n/a	n/a	1
343.615	0.599991628	CIRCUITRY	lure	n/a	n/a	n/a	n/a	1
344.215	0.350050013	HERO	lure	n/a	n/a	n/a	n/a	1
344.565	0.599995735	CANNONBALL	lure	n/a	n/a	n/a	n/a	1
345.165	0.733261417	HAIRDO	lure	n/a	n/a	n/a	n/a	1
345.898	0.666657426	ARGUMENT	lure	n/a	n/a	n/a	n/a	1
346.565	0.683326614	SANCTUARY	lure	n/a	n/a	n/a	n/a	1
347.248	0.700044568	RIPTIDE	lure	n/a	n/a	n/a	n/a	1
347.948	0.599993608	FIREPOWER	lure	n/a	n/a	n/a	n/a	1
348.548	0.716654966	INTENTION	lure	n/a	n/a	n/a	n/a	1
349.265	0.616602513	BOTTLE	short	n/a	n/a	n/a	n/a	1
349.882	0.333382286	CORNEA	lure	n/a	n/a	n/a	n/a	1
350.215	0.466661829	PAPRIKA	lure	n/a	n/a	n/a	n/a	1
350.682	0.549937396	AEROSOL	lure	n/a	n/a	n/a	n/a	1
351.232	0.616657695	SON	lure	n/a	n/a	n/a	n/a	1
351.848	0.550048233	BANKNOTE	lure	n/a	n/a	n/a	n/a	1
352.398	0.649934229	HOGWASH	lure	n/a	n/a	n/a	n/a	1
353.048	0.616715036	VEGETATION	lure	n/a	n/a	n/a	n/a	1
353.665	0.533326339	LIBERALITY	lure	n/a	n/a	n/a	n/a	1
354.198	0.599933064	CAB	lure	n/a	n/a	n/a	n/a	1
354.798	0.399995081	ECLAIR	lure	n/a	n/a	n/a	n/a	1
355.198	0.333376213	DITTY	lure	n/a	n/a	n/a	n/a	1
355.532	0.616669745	ALLEGORY	lure	n/a	n/a	n/a	n/a	1
356.148	0.633264781	ARTILLERY	lure	n/a	n/a	n/a	n/a	1
356.782	0.616657765	CHINCHILLA	lure	n/a	n/a	n/a	n/a	1
357.398	2.016640879	ORNAMENT	long	n/a	n/a	n/a	n/a	1
359.415	0.733322472	PROCURER	lure	n/a	n/a	n/a	n/a	1
360.148	0.666656406	JASPER	lure	n/a	n/a	n/a	n/a	1
360.815	0.416658686	RETAINER	lure	n/a	n/a	n/a	n/a	1
361.231	0.583328903	PRIESTHOOD	lure	n/a	n/a	n/a	n/a	1
361.815	0.720954427	AGENCY	lure	n/a	n/a	n/a	n/a	1
362.536	0.466565377	FOLKLORIST	lure	n/a	n/a	n/a	n/a	1
363.002	0.548561398	RESIDENT	lure	n/a	n/a	n/a	n/a	1
363.551	0.53055489	MISTER	lure	n/a	n/a	n/a	n/a	1
364.081	0.466655729	PAR	lure	n/a	n/a	n/a	n/a	1
364.548	0.616703713	BRUSHWOOD	lure	n/a	n/a	n/a	n/a	1
365.165	0.749988927	CENTERLINE	lure	n/a	n/a	n/a	n/a	1
365.915	0.616615185	DUST	short	n/a	n/a	n/a	n/a	1
366.531	0.533327135	DELL	lure	n/a	n/a	n/a	n/a	1
367.065	0.699989188	WARMUP	lure	n/a	n/a	n/a	n/a	1
367.765	0.616650349	BROW	lure	n/a	n/a	n/a	n/a	1
368.381	0.40006175	RUG	lure	n/a	n/a	n/a	n/a	1
368.781	0.449932396	BURNER	lure	n/a	n/a	n/a	n/a	1
369.231	0.433327832	FOREFATHER	lure	n/a	n/a	n/a	n/a	1
369.665	0.42147934	MANICURE	lure	n/a	n/a	n/a	n/a	1
370.086	0.39673808	TYPOGRAPHY	lure	n/a	n/a	n/a	n/a	1
370.483	0.686570854	GALLEY	lure	n/a	n/a	n/a	n/a	1
371.169	0.595181416	GEOMETRY	lure	n/a	n/a	n/a	n/a	1
371.765	0.750046181	LONGEVITY	lure	n/a	n/a	n/a	n/a	1
372.515	0.649981131	DEBT	lure	n/a	n/a	n/a	n/a	1
373.165	0.699937798	BRICKLAYER	lure	n/a	n/a	n/a	n/a	1
373.865	0.616665671	PROPULSION	lure	n/a	n/a	n/a	n/a	1
374.481	1.018105088	PINEAPPLE	fruit	n/a	931	2	2	1
375.499	0.631917115	TYPHOON	lure	n/a	n/a	n/a	n/a	1
376.131	0.649940587	SENSUALITY	lure	n/a	n/a	n/a	n/a	1
376.781	0.349996942	PARADIGM	lure	n/a	n/a	n/a	n/a	1
377.131	0.566720982	MILE	lure	n/a	n/a	n/a	n/a	1
377.698	0.683262799	RACKETEER	lure	n/a	n/a	n/a	n/a	1
378.381	0.333325356	ANIMAL	lure	n/a	n/a	n/a	n/a	1
378.715	0.583326317	UNDERBELLY	lure	n/a	n/a	n/a	n/a	1
379.298	0.616659435	CAPRICE	lure	n/a	n/a	n/a	n/a	1
379.915	0.566658819	DEPARTURE	lure	n/a	n/a	n/a	n/a	1
380.481	0.616658224	RHINO	lure	n/a	n/a	n/a	n/a	1
381.098	0.600050759	MISUSE	lure	n/a	n/a	n/a	n/a	1
381.698	0.38326759	DOORSTOP	lure	n/a	n/a	n/a	n/a	1
382.081	0.566659413	STEPCHILD	lure	n/a	n/a	n/a	n/a	1
382.648	1.016652105	PEAR	fruit	n/a	621	2	2	1
383.664	0.616658059	MILITARISM	lure	n/a	n/a	n/a	n/a	1
384.281	0.666747479	CLAMPDOWN	lure	n/a	n/a	n/a	n/a	1
384.948	0.583233385	CADET	lure	n/a	n/a	n/a	n/a	1
385.531	0.483382854	HANDLER	lure	n/a	n/a	n/a	n/a	1
386.014	0.433271276	HEARTH	lure	n/a	n/a	n/a	n/a	1
386.448	0.733325083	FEEDBACK	lure	n/a	n/a	n/a	n/a	1
387.181	0.4833842	WATT	lure	n/a	n/a	n/a	n/a	1
387.664	0.516599622	BOUTIQUE	lure	n/a	n/a	n/a	n/a	1
388.181	0.416721452	COPYRIGHT	lure	n/a	n/a	n/a	n/a	1
388.598	0.449933784	MARTYRDOM	lure	n/a	n/a	n/a	n/a	1
389.048	0.733378846	EYEPIECE	lure	n/a	n/a	n/a	n/a	1
389.781	0.41660495	STRATEGY	lure	n/a	n/a	n/a	n/a	1
390.198	0.450049604	HELICOPTER	lure	n/a	n/a	n/a	n/a	1
390.648	2.016581942	FOSSIL	long	n/a	n/a	n/a	n/a	1
392.664	0.649992652	DESTROYER	lure	n/a	n/a	n/a	n/a	1
393.314	0.349991676	NIGHTHAWK	lure	n/a	n/a	n/a	n/a	1
393.664	0.449995319	TROUSER	lure	n/a	n/a	n/a	n/a	1
394.114	0.666714365	OZONE	lure	n/a	n/a	n/a	n/a	1
394.781	0.61660132	WOMENFOLK	lure	n/a	n/a	n/a	n/a	1
395.398	0.499991208	BIPLANE	lure	n/a	n/a	n/a	n/a	1
395.898	0.383330947	KANGAROO	lure	n/a	n/a	n/a	n/a	1
396.281	0.349994143	LUNGPOWER	lure	n/a	n/a	n/a	n/a	1
396.631	0.399992926	TALC	lure	n/a	n/a	n/a	n/a	1
397.031	0.499994758	FISHPOND	lure	n/a	n/a	n/a	n/a	1
397.531	0.666731218	COHESION	lure	n/a	n/a	n/a	n/a	1
398.198	0.549918233	CREWMEMBER	lure	n/a	n/a	n/a	n/a	1
398.748	0.750033008	ZEBRA	lure	n/a	n/a	n/a	n/a	1
399.498	0.649990905	RULER	short	n/a	n/a	n/a	n/a	1
400.148	0.599991372	SEALER	lure	n/a	n/a	n/a	n/a	1
400.748	0.599946385	FOUNDER	lure	n/a	n/a	n/a	n/a	1
401.348	0.466660707	TOMAHAWK	lure	n/a	n/a	n/a	n/a	1
401.814	0.750049479	BARRICADE	lure	n/a	n/a	n/a	n/a	1
402.564	0.583265378	BIRDSEED	lure	n/a	n/a	n/a	n/a	1
403.148	0.499993287	FOOTPATH	lure	n/a	n/a	n/a	n/a	1
403.648	0.616658773	FRIAR	lure	n/a	n/a	n/a	n/a	1
404.264	0.366708996	SOAPBOX	lure	n/a	n/a	n/a	n/a	1
404.631	0.73327447	REMODEL	lure	n/a	n/a	n/a	n/a	1
405.364	0.399992387	HONEYCOMB	lure	n/a	n/a	n/a	n/a	1
405.764	0.750051798	SNAPPER	lure	n/a	n/a	n/a	n/a	1
406.514	0.366601531	CELLULOSE	lure	n/a	n/a	n/a	n/a	1
406.881	0.4167181	CENTIMETER	lure	n/a	n/a	n/a	n/a	1
407.298	2.016580817	PARCEL	long	n/a	n/a	n/a	n/a	1
409.314	0.416661792	APATHY	lure	n/a	n/a	n/a	n/a	1
409.731	0.533327241	CHITCHAT	lure	n/a	n/a	n/a	n/a	1
410.264	0.53338358	REGRESSION	lure	n/a	n/a	n/a	n/a	1
410.797	0.333267065	ACTIVITY	lure	n/a	n/a	n/a	n/a	1
411.131	0.383329169	WASTEWATER	lure	n/a	n/a	n/a	n/a	1
411.514	0.416709259	HEADGEAR	lure	n/a	n/a	n/a	n/a	1
411.931	0.533335614	DISSOn/aCE	lure	n/a	n/a	n/a	n/a	1
412.464	0.566657579	DENTIST	lure	n/a	n/a	n/a	n/a	1
413.031	0.683327	BOILER	lure	n/a	n/a	n/a	n/a	1
413.714	0.383266392	TALE	lure	n/a	n/a	n/a	n/a	1
414.097	0.349997616	PLAYGROUND	lure	n/a	n/a	n/a	n/a	1
414.447	0.433371787	LAPEL	lure	n/a	n/a	n/a	n/a	1
414.881	0.483280165	JACKET	lure	n/a	n/a	n/a	n/a	1
415.364	2.01664125	CABLE	long	n/a	n/a	n/a	n/a	1
417.381	0.416717386	RESIDUE	lure	n/a	n/a	n/a	n/a	1
417.797	0.483266606	TURNOFF	lure	n/a	n/a	n/a	n/a	1
418.281	0.616660257	SOMERSET	lure	n/a	n/a	n/a	n/a	1
418.897	0.666655729	YARD	lure	n/a	n/a	n/a	n/a	1
419.564	0.416658398	PLATTER	lure	n/a	n/a	n/a	n/a	1
419.981	0.616707123	GRAMMAR	lure	n/a	n/a	n/a	n/a	1
420.597	0.549945985	DECORATOR	lure	n/a	n/a	n/a	n/a	1
421.147	0.699990024	FROCK	lure	n/a	n/a	n/a	n/a	1
421.847	0.433371722	PARITY	lure	n/a	n/a	n/a	n/a	1
422.281	0.399949604	REDDING	lure	n/a	n/a	n/a	n/a	1
422.681	0.51671541	ORDINATE	lure	n/a	n/a	n/a	n/a	1
423.197	0.449995328	TROUGH	lure	n/a	n/a	n/a	n/a	1
423.647	1.016594233	BAn/aA	fruit	n/a	n/a	n/a	2	0
424.664	0.400052733	REFLECTION	lure	n/a	117	2	n/a	0
425.064	0.399981054	DEVIANCY	lure	n/a	n/a	n/a	n/a	1
425.464	0.583275921	CONQUEST	lure	n/a	n/a	n/a	n/a	1
426.047	0.433376569	RACEHORSE	lure	n/a	n/a	n/a	n/a	1
426.481	0.516612276	SKEPTICISM	lure	n/a	n/a	n/a	n/a	1
426.997	0.549992892	LUMBERJACK	lure	n/a	n/a	n/a	n/a	1
427.547	0.449996174	ATROCITY	lure	n/a	n/a	n/a	n/a	1
427.997	0.399992805	GINSENG	lure	n/a	n/a	n/a	n/a	1
428.397	0.566656752	JAGUAR	lure	n/a	n/a	n/a	n/a	1
428.964	0.666655409	DIPLOMA	lure	n/a	n/a	n/a	n/a	1
429.63	0.31672519	PRETZEL	lure	n/a	n/a	n/a	n/a	1
429.947	0.516659828	TORTOISE	lure	n/a	n/a	n/a	n/a	1
430.464	0.699988155	SALVATION	lure	n/a	n/a	n/a	n/a	1
431.164	0.499935387	INFANCY	lure	n/a	n/a	n/a	n/a	1
431.664	1.016652144	STRAWBERRY	fruit	n/a	n/a	n/a	2	0
432.68	0.616659862	RHUBARB	lure	n/a	n/a	n/a	n/a	1
433.297	0.549990002	FALLACY	lure	n/a	n/a	n/a	n/a	1
433.847	0.433329154	RASH	lure	n/a	n/a	n/a	n/a	1
434.28	0.416658246	SOMETHING	lure	n/a	n/a	n/a	n/a	1
434.697	0.399996226	EQUATION	lure	n/a	n/a	n/a	n/a	1
435.097	0.733322628	STIGMATA	lure	n/a	n/a	n/a	n/a	1
435.83	0.633319975	AMUSEMENT	lure	n/a	n/a	n/a	n/a	1
436.464	0.599995744	SUNDAE	lure	n/a	n/a	n/a	n/a	1
437.064	0.466660187	PETTICOAT	lure	n/a	n/a	n/a	n/a	1
437.53	0.602650923	SALESMEN	lure	n/a	n/a	n/a	n/a	1
438.133	0.747375716	TORMENTOR	lure	n/a	n/a	n/a	n/a	1
438.88	0.349948654	HILARITY	lure	n/a	n/a	n/a	n/a	1
439.23	0.350052558	SUNBEAM	lure	n/a	n/a	n/a	n/a	1
439.58	0.6499837	TIRE	short	n/a	n/a	n/a	n/a	1
440.23	0.666610564	SLEW	lure	n/a	n/a	n/a	n/a	1
440.897	0.51665599	PASTRAMI	lure	n/a	n/a	n/a	n/a	1
441.414	0.316662882	CROSSWORD	lure	n/a	n/a	n/a	n/a	1
441.73	0.350042003	REUNION	lure	n/a	n/a	n/a	n/a	1
442.08	0.466612949	TOOLMAKER	lure	n/a	n/a	n/a	n/a	1
442.547	0.683386053	CLUMP	lure	n/a	n/a	n/a	n/a	1
443.23	0.699929285	WHIZ	lure	n/a	n/a	n/a	n/a	1
443.93	0.716655206	DYNAMISM	lure	n/a	n/a	n/a	n/a	1
444.647	0.633372956	ENCLOSURE	lure	n/a	n/a	n/a	n/a	1
445.28	0.449944915	LAYOFF	lure	n/a	n/a	n/a	n/a	1
445.73	0.70004744	DOCILITY	lure	n/a	n/a	n/a	n/a	1
446.43	0.59998123	BOAR	lure	n/a	n/a	n/a	n/a	1
447.03	0.633280013	NOVICE	lure	n/a	n/a	n/a	n/a	1
447.664	2.016638405	BARREL	long	n/a	n/a	n/a	n/a	1
449.68	0.683321373	ARCHWAY	lure	n/a	n/a	n/a	n/a	1
450.364	0.73332465	BROKERAGE	lure	n/a	n/a	n/a	n/a	1
451.097	0.64998334	BOOKKEEPER	lure	n/a	n/a	n/a	n/a	1
451.747	0.466665319	TALISMAN	lure	n/a	n/a	n/a	n/a	1
452.213	0.33557954	STONEWORK	lure	n/a	n/a	n/a	n/a	1
452.549	0.531074087	MOMMY	lure	n/a	n/a	n/a	n/a	1
453.08	0.399996415	MELODY	lure	n/a	n/a	n/a	n/a	1
453.48	0.73332379	PIGTAIL	lure	n/a	n/a	n/a	n/a	1
454.213	0.583329629	PERIMETER	lure	n/a	n/a	n/a	n/a	1
454.797	0.400047367	CABOODLE	lure	n/a	n/a	n/a	n/a	1
455.197	0.566597776	TABERNACLE	lure	n/a	n/a	n/a	n/a	1
455.763	0.716708077	PORTION	lure	n/a	n/a	n/a	n/a	1
456.48	0.433320927	PENCE	lure	n/a	n/a	n/a	n/a	1
456.913	0.433329023	GYM	lure	n/a	n/a	n/a	n/a	1
457.347	0.633279891	BLACKBIRD	lure	n/a	n/a	n/a	n/a	1
457.98	0.700042535	RUBBER	lure	n/a	n/a	n/a	n/a	1
458.68	0.399940035	DENOTATION	lure	n/a	n/a	n/a	n/a	1
459.08	0.717813534	COMPLIANCE	lure	n/a	n/a	n/a	n/a	1
459.798	0.31550698	EXAMPLE	lure	n/a	n/a	n/a	n/a	1
460.113	0.58332531	STRATEGIST	lure	n/a	n/a	n/a	n/a	1
460.697	0.350055499	COMMUNION	lure	n/a	n/a	n/a	n/a	1
461.047	0.43332291	FAIRWAY	lure	n/a	n/a	n/a	n/a	1
461.48	0.549934927	VOLT	lure	n/a	n/a	n/a	n/a	1
462.03	0.550044801	SOCIOLOGY	lure	n/a	n/a	n/a	n/a	1
462.58	0.549937673	SEMESTER	lure	n/a	n/a	n/a	n/a	1
463.13	0.38332939	AVOCADO	lure	n/a	n/a	n/a	n/a	1
463.513	0.566661496	AFFLICTION	lure	n/a	n/a	n/a	n/a	1
464.08	0.683378325	REBEL	lure	n/a	n/a	n/a	n/a	1
464.763	n/a	MIDAIR	lure	n/a	n/a	n/a	n/a	1