onset	duration	stim	cond	RT	resp	cresp	acc
4.041	0.531878681	AMULET	lure	n/a	n/a	n/a	1
4.573	0.516724678	BASEMAN	lure	n/a	n/a	n/a	1
5.089	0.649927387	BARBARISM	lure	n/a	n/a	n/a	1
5.739	0.549991842	MAKER	lure	n/a	n/a	n/a	1
6.289	0.6529607	PORTRAIT	lure	n/a	n/a	n/a	1
6.942	0.380408437	TROUPE	lure	n/a	n/a	n/a	1
7.323	0.483277137	SUNBURST	lure	n/a	n/a	n/a	1
7.806	1.016647265	CRANBERRY	fruit	680	2	2	1
8.823	0.366666984	FORTNIGHT	lure	n/a	n/a	n/a	1
9.189	0.533324244	BUMBLEBEE	lure	n/a	n/a	n/a	1
9.723	0.483327044	TREADMILL	lure	n/a	n/a	n/a	1
10.206	0.7333256	YOUTH	lure	n/a	n/a	n/a	1
10.939	0.633322126	HEADLAND	lure	n/a	n/a	n/a	1
11.573	0.749989472	RESIDENCY	lure	n/a	n/a	n/a	1
12.323	0.633319845	SPOTTER	lure	n/a	n/a	n/a	1
12.956	0.649995078	NECKWEAR	lure	n/a	n/a	n/a	1
13.606	0.599991558	SCRIPTURE	lure	n/a	n/a	n/a	1
14.206	0.66665913	EXPECTANCY	lure	n/a	n/a	n/a	1
14.873	0.649988885	COASTGUARD	lure	n/a	n/a	n/a	1
15.523	0.799987737	SUBSTRATE	lure	n/a	n/a	n/a	1
16.323	0.616659161	FERRY	short	n/a	n/a	n/a	1
16.939	0.499990094	CODEINE	lure	n/a	n/a	n/a	1
17.439	0.499997262	PINWHEEL	lure	n/a	n/a	n/a	1
17.939	0.45009187	DUGOUT	lure	n/a	n/a	n/a	1
18.389	0.41656102	RAZORBACK	lure	n/a	n/a	n/a	1
18.806	0.616658279	ASSEMBLY	lure	n/a	n/a	n/a	1
19.423	0.716718593	CAUSEWAY	lure	n/a	n/a	n/a	1
20.139	0.699924542	TURKEY	lure	n/a	n/a	n/a	1
20.839	0.716659624	RELEVANCY	lure	n/a	n/a	n/a	1
21.556	0.649991324	PLATOON	lure	n/a	n/a	n/a	1
22.206	0.533382645	WATERWAY	lure	n/a	n/a	n/a	1
22.739	0.533269694	HOLSTER	lure	n/a	n/a	n/a	1
23.272	0.583321977	AIRPORT	lure	n/a	n/a	n/a	1
23.856	0.716660054	EPITAPH	lure	n/a	n/a	n/a	1
24.572	2.01663409	PARCEL	long	n/a	n/a	n/a	1
26.589	0.400411818	HOLDER	lure	n/a	n/a	n/a	1
26.989	0.366247523	MASCOT	lure	n/a	n/a	n/a	1
27.356	0.566658776	SAILBOAT	lure	n/a	n/a	n/a	1
27.922	0.58332202	RECOUNT	lure	n/a	n/a	n/a	1
28.506	0.616657028	TRIANGLE	lure	n/a	n/a	n/a	1
29.122	0.449999073	CONFIDANT	lure	n/a	n/a	n/a	1
29.572	0.666655905	ROCKER	lure	n/a	n/a	n/a	1
30.239	0.516719171	BLUEBIRD	lure	n/a	n/a	n/a	1
30.756	0.599931405	PRESENCE	lure	n/a	n/a	n/a	1
31.356	0.683325641	HASHISH	lure	n/a	n/a	n/a	1
32.039	0.716654874	VARIANCE	lure	n/a	n/a	n/a	1
32.756	2.016638217	FOSSIL	long	n/a	n/a	n/a	1
34.772	0.55004182	PRELUDE	lure	n/a	n/a	n/a	1
35.322	0.68327003	BROADCLOTH	lure	n/a	n/a	n/a	1
36.006	0.683327047	PAVEMENT	lure	n/a	n/a	n/a	1
36.689	0.600022806	RUBDOWN	lure	n/a	n/a	n/a	1
37.289	0.666626233	AVALANCHE	lure	n/a	n/a	n/a	1
37.956	0.499994182	BANDAGE	lure	n/a	n/a	n/a	1
38.456	0.600038307	NAVIGATION	lure	n/a	n/a	n/a	1
39.056	0.533326978	VILLA	lure	n/a	n/a	n/a	1
39.589	0.44994139	HARDSHIP	lure	n/a	n/a	n/a	1
40.039	0.666661833	MAGISTRATE	lure	n/a	n/a	n/a	1
40.706	0.500334204	ELEPHANT	lure	n/a	n/a	n/a	1
41.206	2.016298686	CABLE	long	n/a	n/a	n/a	1
43.222	0.783320446	SPINACH	lure	n/a	n/a	n/a	1
44.005	0.466661413	PULSAR	lure	n/a	n/a	n/a	1
44.472	0.599990355	FLUTE	lure	n/a	n/a	n/a	1
45.072	0.59999239	ATTACHMENT	lure	n/a	n/a	n/a	1
45.672	0.766655048	PECAN	lure	n/a	n/a	n/a	1
46.439	0.350049114	STRAW	lure	n/a	n/a	n/a	1
46.789	0.566659499	PASTOR	lure	n/a	n/a	n/a	1
47.355	0.69993529	LIFE	lure	n/a	n/a	n/a	1
48.055	0.333383897	INTEGER	lure	n/a	n/a	n/a	1
48.389	0.533330103	SIDEWINDER	lure	n/a	n/a	n/a	1
48.922	0.768001843	MINUTEMEN	lure	n/a	n/a	n/a	1
49.69	0.615251429	MIRROR	short	n/a	n/a	n/a	1
50.305	0.733324232	LIVER	lure	n/a	n/a	n/a	1
51.039	0.716656846	INSOLENCE	lure	n/a	n/a	n/a	1
51.755	0.716655761	MAJORITY	lure	n/a	n/a	n/a	1
52.472	0.583325593	GIRLHOOD	lure	n/a	n/a	n/a	1
53.055	0.386917608	PAGEANTRY	lure	n/a	n/a	n/a	1
53.442	0.667569133	MIGRAINE	lure	n/a	n/a	n/a	1
54.11	0.32888621	TROTTER	lure	n/a	n/a	n/a	1
54.439	0.44993505	ANIMATION	lure	n/a	n/a	n/a	1
54.889	0.433326075	PERMIT	lure	n/a	n/a	n/a	1
55.322	0.583372258	POSTAGE	lure	n/a	n/a	n/a	1
55.905	0.73327662	DINER	lure	n/a	n/a	n/a	1
56.639	0.516658828	MUSIC	lure	n/a	n/a	n/a	1
57.155	0.450051233	CLOAKROOM	lure	n/a	n/a	n/a	1
57.605	0.616596041	CLOAK	short	n/a	n/a	n/a	1
58.222	0.733327908	YEARBOOK	lure	n/a	n/a	n/a	1
58.955	0.450048213	HACKSAW	lure	n/a	n/a	n/a	1
59.405	0.433328692	GIN	lure	n/a	n/a	n/a	1
59.839	0.699929136	ASSISTANT	lure	n/a	n/a	n/a	1
60.539	0.466664226	BLENDER	lure	n/a	n/a	n/a	1
61.005	0.620403264	CONCERT	lure	n/a	n/a	n/a	1
61.626	0.729581001	FARMER	lure	n/a	n/a	n/a	1
62.355	0.468608293	DIRT	lure	n/a	n/a	n/a	1
62.824	0.681373508	RACIALISM	lure	n/a	n/a	n/a	1
63.505	0.516708194	LUCIDITY	lure	n/a	n/a	n/a	1
64.022	0.700004243	HITCHHIKER	lure	n/a	n/a	n/a	1
64.722	0.366597267	MIRACLE	lure	n/a	n/a	n/a	1
65.089	0.416721041	DOWRY	lure	n/a	n/a	n/a	1
65.505	2.016580982	NOVEL	long	n/a	n/a	n/a	1
67.522	0.449990809	STALEMATE	lure	n/a	n/a	n/a	1
67.972	0.366661125	GROUPIE	lure	n/a	n/a	n/a	1
68.338	0.699988074	PHANTOM	lure	n/a	n/a	n/a	1
69.038	0.400000971	MOTHERHOOD	lure	n/a	n/a	n/a	1
69.438	0.33332523	ATTENTION	lure	n/a	n/a	n/a	1
69.772	0.583326093	WALLPAPER	lure	n/a	n/a	n/a	1
70.355	0.633323471	SPONGE	lure	n/a	n/a	n/a	1
70.988	0.699991298	SIDELIGHT	lure	n/a	n/a	n/a	1
71.688	0.599985119	HAYSTACK	lure	n/a	n/a	n/a	1
72.288	0.449998825	VALVE	lure	n/a	n/a	n/a	1
72.738	0.683322475	CONFORMITY	lure	n/a	n/a	n/a	1
73.422	0.549994166	ANNOUNCER	lure	n/a	n/a	n/a	1
73.972	2.016637318	DITCH	long	n/a	n/a	n/a	1
75.988	0.704580456	REPORTER	lure	n/a	n/a	n/a	1
76.693	0.328805157	GOSPEL	lure	n/a	n/a	n/a	1
77.022	0.683257365	STRETCHER	lure	n/a	n/a	n/a	1
77.705	0.583324644	BOYHOOD	lure	n/a	n/a	n/a	1
78.288	0.483327676	STOREFRONT	lure	n/a	n/a	n/a	1
78.772	0.633324898	BRAVADO	lure	n/a	n/a	n/a	1
79.405	0.49999264	AMPHIBIAN	lure	n/a	n/a	n/a	1
79.905	0.716658392	CONFUSION	lure	n/a	n/a	n/a	1
80.622	0.486553633	THEATER	lure	n/a	n/a	n/a	1
81.108	0.749576285	THYME	lure	n/a	n/a	n/a	1
81.858	0.4345621	REDUCER	lure	n/a	n/a	n/a	1
82.292	1.014577972	PEAR	fruit	n/a	n/a	2	0
83.307	0.484558969	WRAPPER	lure	n/a	n/a	n/a	1
83.791	0.330117493	WINDER	lure	n/a	n/a	n/a	1
84.122	0.566661115	STUMPER	lure	n/a	n/a	n/a	1
84.688	0.699990433	ROOSTER	lure	n/a	n/a	n/a	1
85.388	0.416660171	INTEGRITY	lure	n/a	n/a	n/a	1
85.805	0.716656124	SANDAL	lure	n/a	n/a	n/a	1
86.522	0.749986004	CLIPPER	lure	n/a	n/a	n/a	1
87.272	0.4999937	SEMICOLON	lure	n/a	n/a	n/a	1
87.772	0.600040199	ORE	lure	n/a	n/a	n/a	1
88.372	0.516614036	PROFESSION	lure	n/a	n/a	n/a	1
88.888	0.41665977	SHAW	lure	n/a	n/a	n/a	1
89.305	0.38332843	CHARISMA	lure	n/a	n/a	n/a	1
89.688	0.483326596	OPINION	lure	n/a	n/a	n/a	1
90.172	0.366662548	TRACKER	lure	n/a	n/a	n/a	1
90.538	1.020125669	BAn/aA	fruit	820	2	2	1
91.558	0.363186024	MILLIMETER	lure	n/a	n/a	n/a	1
91.921	0.466660203	RIB	lure	n/a	n/a	n/a	1
92.388	0.399991945	TABLESPOON	lure	n/a	n/a	n/a	1
92.788	0.41666077	OVERTIME	lure	n/a	n/a	n/a	1
93.205	0.449998268	TUNNEL	lure	n/a	n/a	n/a	1
93.655	0.683323617	METEOROID	lure	n/a	n/a	n/a	1
94.338	0.516658657	CORN	lure	n/a	n/a	n/a	1
94.855	0.533325196	SLEET	lure	n/a	n/a	n/a	1
95.388	0.349996684	TIRADE	lure	n/a	n/a	n/a	1
95.738	0.666657095	TRICOLOR	lure	n/a	n/a	n/a	1
96.405	0.499989761	PROFESSOR	lure	n/a	n/a	n/a	1
96.905	0.749991003	GRIMACE	lure	n/a	n/a	n/a	1
97.655	0.317793441	PUZZLEMENT	lure	n/a	n/a	n/a	1
97.973	0.615575853	PRECEPT	lure	n/a	n/a	n/a	1
98.588	0.61660937	BOTTLE	short	n/a	n/a	n/a	1
99.205	0.716657234	TURBOJET	lure	n/a	n/a	n/a	1
99.921	0.349993757	TUITION	lure	n/a	n/a	n/a	1
100.271	0.683322266	REVERENCE	lure	n/a	n/a	n/a	1
100.955	0.449999275	HYSTERIA	lure	n/a	n/a	n/a	1
101.405	0.716656242	DRIFTER	lure	n/a	n/a	n/a	1
102.121	0.733315229	DOMIn/aCE	lure	n/a	n/a	n/a	1
102.855	0.649992108	BREAD	lure	n/a	n/a	n/a	1
103.505	0.616660121	BARB	lure	n/a	n/a	n/a	1
104.121	0.633326069	OCCUPATION	lure	n/a	n/a	n/a	1
104.755	0.549988486	DESSERT	lure	n/a	n/a	n/a	1
105.305	0.483330949	ANTHILL	lure	n/a	n/a	n/a	1
105.788	0.483325302	LAUNDROMAT	lure	n/a	n/a	n/a	1
106.271	0.71665244	SLEDGE	lure	n/a	n/a	n/a	1
106.988	2.016644744	RAINBOW	long	n/a	n/a	n/a	1
109.005	0.416658657	TOOTH	lure	n/a	n/a	n/a	1
109.421	0.56665783	LEAKAGE	lure	n/a	n/a	n/a	1
109.988	0.616659334	IMMODESTY	lure	n/a	n/a	n/a	1
110.605	0.566659168	HUMANISM	lure	n/a	n/a	n/a	1
111.171	0.383328292	BORROWER	lure	n/a	n/a	n/a	1
111.555	0.366722618	READER	lure	n/a	n/a	n/a	1
111.921	0.316662742	ENEMY	lure	n/a	n/a	n/a	1
112.238	0.416598394	MIDDEN	lure	n/a	n/a	n/a	1
112.655	0.666653534	MADHOUSE	lure	n/a	n/a	n/a	1
113.321	0.449997143	FOREBODING	lure	n/a	n/a	n/a	1
113.771	0.700051588	GUNMAN	lure	n/a	n/a	n/a	1
114.471	0.566598709	WARSHIP	lure	n/a	n/a	n/a	1
115.038	0.516762174	NICHE	lure	n/a	n/a	n/a	1
115.555	0.616555878	MATTRESS	short	n/a	n/a	n/a	1
116.171	0.316706624	EXHALATION	lure	n/a	n/a	n/a	1
116.488	0.383282551	DOORHANDLE	lure	n/a	n/a	n/a	1
116.871	0.349993919	MOCKERY	lure	n/a	n/a	n/a	1
117.221	0.34999266	BALLERINA	lure	n/a	n/a	n/a	1
117.571	0.433330844	SPOILER	lure	n/a	n/a	n/a	1
118.004	0.416659291	MANOR	lure	n/a	n/a	n/a	1
118.421	0.599992911	RATTLER	lure	n/a	n/a	n/a	1
119.021	0.43332577	ASYLUM	lure	n/a	n/a	n/a	1
119.454	0.749985103	BATON	lure	n/a	n/a	n/a	1
120.204	0.516663593	EASEL	lure	n/a	n/a	n/a	1
120.721	0.383329129	DUTY	lure	n/a	n/a	n/a	1
121.104	0.633324875	TUNER	lure	n/a	n/a	n/a	1
121.738	0.666651847	EMBROIDERY	lure	n/a	n/a	n/a	1
122.404	0.433331589	GRATUITY	lure	n/a	n/a	n/a	1
122.838	0.683324679	MEDIC	lure	n/a	n/a	n/a	1
123.521	0.633324154	ACCURACY	lure	n/a	n/a	n/a	1
124.154	2.016637651	CART	long	n/a	n/a	n/a	1
126.171	0.399994329	TRANSPLANT	lure	n/a	n/a	n/a	1
126.571	0.699989526	SUNDIAL	lure	n/a	n/a	n/a	1
127.271	0.449990975	LOUNGER	lure	n/a	n/a	n/a	1
127.721	0.666660827	SUNBURN	lure	n/a	n/a	n/a	1
128.388	0.433326258	SHOWCASE	lure	n/a	n/a	n/a	1
128.821	0.669563618	DEPUTY	lure	n/a	n/a	n/a	1
129.491	0.597087401	BASEBOARD	lure	n/a	n/a	n/a	1
130.088	0.57105176	CUSTOMER	lure	n/a	n/a	n/a	1
130.659	0.412265589	HALL	lure	n/a	n/a	n/a	1
131.071	0.649991288	CANOE	lure	n/a	n/a	n/a	1
131.721	0.399993502	ATTITUDE	lure	n/a	n/a	n/a	1
132.121	1.016655243	ELDERBERRY	fruit	725	2	2	1
133.138	0.483323638	INTENSITY	lure	n/a	n/a	n/a	1
133.621	0.516661623	DERBY	lure	n/a	n/a	n/a	1
134.138	0.333329328	FOLLY	lure	n/a	n/a	n/a	1
134.471	0.433326023	TEXTILE	lure	n/a	n/a	n/a	1
134.904	0.766656331	BEAUTY	lure	n/a	n/a	n/a	1
135.671	0.64998899	PAINTBOX	lure	n/a	n/a	n/a	1
136.321	0.716658185	EMPLOYER	lure	n/a	n/a	n/a	1
137.038	0.48594456	BIRCH	lure	n/a	n/a	n/a	1
137.523	0.61403965	TEABAG	lure	n/a	n/a	n/a	1
138.138	0.41666161	BREAKAWAY	lure	n/a	n/a	n/a	1
138.554	0.66665524	IDIOM	lure	n/a	n/a	n/a	1
139.221	0.433328384	VESTIGE	lure	n/a	n/a	n/a	1
139.654	0.616658352	RECESSION	lure	n/a	n/a	n/a	1
140.271	0.333328125	INTERPLAY	lure	n/a	n/a	n/a	1
140.604	1.016653055	STRAWBERRY	fruit	682	2	2	1
141.621	0.716657312	BREAKWATER	lure	n/a	n/a	n/a	1
142.337	0.366660042	SUBWAY	lure	n/a	n/a	n/a	1
142.704	0.63332567	HEADSET	lure	n/a	n/a	n/a	1
143.337	0.566657483	STRAGGLER	lure	n/a	n/a	n/a	1
143.904	0.366661934	SECLUSION	lure	n/a	n/a	n/a	1
144.271	0.749990262	PLAYTIME	lure	n/a	n/a	n/a	1
145.021	0.549992942	THRESHOLD	lure	n/a	n/a	n/a	1
145.571	0.316660815	PUBLICITY	lure	n/a	n/a	n/a	1
145.887	0.333328168	COCKROACH	lure	n/a	n/a	n/a	1
146.221	0.516658073	OILSKIN	lure	n/a	n/a	n/a	1
146.737	0.416661262	SHOESTRING	lure	n/a	n/a	n/a	1
147.154	0.399996068	CATERER	lure	n/a	n/a	n/a	1
147.554	0.499992911	PEAL	lure	n/a	n/a	n/a	1
148.054	0.766654404	PIPELINE	lure	n/a	n/a	n/a	1
148.821	0.616656966	TEAR	short	n/a	n/a	n/a	1
149.437	0.333327262	OVERKILL	lure	n/a	n/a	n/a	1
149.771	0.566664121	DOORBELL	lure	n/a	n/a	n/a	1
150.337	0.449990782	WIG	lure	n/a	n/a	n/a	1
150.787	0.599991054	ALIBI	lure	n/a	n/a	n/a	1
151.387	0.50020334	AURA	lure	n/a	n/a	n/a	1
151.888	0.5497829	RESEARCHER	lure	n/a	n/a	n/a	1
152.437	0.516660635	FILLER	lure	n/a	n/a	n/a	1
152.954	0.733323396	CAMEL	lure	n/a	n/a	n/a	1
153.687	0.516658889	LID	lure	n/a	n/a	n/a	1
154.204	0.720906025	PAUPER	lure	n/a	n/a	n/a	1
154.925	0.512409538	STOVEPIPE	lure	n/a	n/a	n/a	1
155.437	0.499993515	RELICT	lure	n/a	n/a	n/a	1
155.937	0.633325011	COACHMAN	lure	n/a	n/a	n/a	1
156.571	0.499991106	CHEETAH	lure	n/a	n/a	n/a	1
157.071	0.616662122	PIANO	short	n/a	n/a	n/a	1
157.687	0.316654194	PRECURSOR	lure	n/a	n/a	n/a	1
158.004	0.633324876	CASTAWAY	lure	n/a	n/a	n/a	1
158.637	0.433330402	REDUNDANCY	lure	n/a	n/a	n/a	1
159.071	0.633326705	PROTOTYPE	lure	n/a	n/a	n/a	1
159.704	0.616652645	HOUSEWORK	lure	n/a	n/a	n/a	1
160.321	0.583329514	SLEEPYHEAD	lure	n/a	n/a	n/a	1
160.904	0.466659791	AVIATION	lure	n/a	n/a	n/a	1
161.371	0.616658951	STINKER	lure	n/a	n/a	n/a	1
161.987	0.599988228	BULKHEAD	lure	n/a	n/a	n/a	1
162.587	0.43333212	SANDBANK	lure	n/a	n/a	n/a	1
163.02	0.483319303	BRIGADE	lure	n/a	n/a	n/a	1
163.504	0.466661775	GLEN	lure	n/a	n/a	n/a	1
163.97	0.649988133	BUREAU	lure	n/a	n/a	n/a	1
164.62	0.450756587	SCALLION	lure	n/a	n/a	n/a	1
165.071	2.015880809	ORNAMENT	long	n/a	n/a	n/a	1
167.087	0.599993066	AIRWAY	lure	n/a	n/a	n/a	1
167.687	0.599985987	JAR	lure	n/a	n/a	n/a	1
168.287	0.66665567	NORMALITY	lure	n/a	n/a	n/a	1
168.954	0.416668255	GOLF	lure	n/a	n/a	n/a	1
169.37	0.533320404	NIGHTLINE	lure	n/a	n/a	n/a	1
169.904	0.633330527	INVESTMENT	lure	n/a	n/a	n/a	1
170.537	0.485671233	ASTRONAUT	lure	n/a	n/a	n/a	1
171.023	0.585566647	TOOL	lure	n/a	n/a	n/a	1
171.608	0.495403714	SASH	lure	n/a	n/a	n/a	1
172.104	0.449993506	TELEPATHY	lure	n/a	n/a	n/a	1
172.554	0.599988242	DESCENT	lure	n/a	n/a	n/a	1
173.154	2.016645463	BARREL	long	n/a	n/a	n/a	1
175.17	0.38332067	SPECULATOR	lure	n/a	n/a	n/a	1
175.554	0.716661772	NURSERY	lure	n/a	n/a	n/a	1
176.27	0.733321477	STOKER	lure	n/a	n/a	n/a	1
177.004	0.583326741	BLOWGUN	lure	n/a	n/a	n/a	1
177.587	0.633323778	CATALOG	lure	n/a	n/a	n/a	1
178.22	0.48332667	SANDBAR	lure	n/a	n/a	n/a	1
178.704	0.683322674	GUMBO	lure	n/a	n/a	n/a	1
179.387	0.34999524	FIREBIRD	lure	n/a	n/a	n/a	1
179.737	0.733326743	SUITE	lure	n/a	n/a	n/a	1
180.47	0.616656011	INSTRUCTOR	lure	n/a	n/a	n/a	1
181.087	0.699991538	SPOILSPORT	lure	n/a	n/a	n/a	1
181.787	0.616657295	RULER	short	n/a	n/a	n/a	1
182.404	0.616656084	STEAMER	lure	n/a	n/a	n/a	1
183.02	0.483323192	FOOTNOTE	lure	n/a	n/a	n/a	1
183.504	0.549997288	AGENT	lure	n/a	n/a	n/a	1
184.054	0.53332374	COLLAGE	lure	n/a	n/a	n/a	1
184.587	0.549991042	ANONYMITY	lure	n/a	n/a	n/a	1
185.137	0.733324127	CAFE	lure	n/a	n/a	n/a	1
185.87	0.583325603	JUMPER	lure	n/a	n/a	n/a	1
186.453	0.733324467	HESITANCY	lure	n/a	n/a	n/a	1
187.187	0.649989449	TINDERBOX	lure	n/a	n/a	n/a	1
187.837	0.383325911	NONE	lure	n/a	n/a	n/a	1
188.22	0.616659813	SHOCKWAVE	lure	n/a	n/a	n/a	1
188.837	0.333329081	HAMMOCK	lure	n/a	n/a	n/a	1
189.17	0.61665753	MARINER	lure	n/a	n/a	n/a	1
189.787	0.537095746	MARKER	lure	n/a	n/a	n/a	1
190.324	2.063378388	TAPE	long	n/a	n/a	n/a	1
192.387	0.716142509	RELOCATION	lure	n/a	n/a	n/a	1
193.103	0.56666266	GIMMICK	lure	n/a	n/a	n/a	1
193.67	0.316661406	CELIBACY	lure	n/a	n/a	n/a	1
193.987	0.699991368	POPULISM	lure	n/a	n/a	n/a	1
194.687	0.466659771	WIDOWHOOD	lure	n/a	n/a	n/a	1
195.153	0.533325477	EFFORT	lure	n/a	n/a	n/a	1
195.687	0.533326727	MISFORTUNE	lure	n/a	n/a	n/a	1
196.22	0.649991795	LONGBOW	lure	n/a	n/a	n/a	1
196.87	0.316659755	DEVOTION	lure	n/a	n/a	n/a	1
197.187	0.699989573	SANDSTORM	lure	n/a	n/a	n/a	1
197.887	0.433327709	SOCIALITY	lure	n/a	n/a	n/a	1
198.32	0.616659503	TIRE	short	n/a	n/a	n/a	1
198.937	0.466659588	SHIPWRECK	lure	n/a	n/a	n/a	1
199.403	0.433322732	SUBMISSION	lure	n/a	n/a	n/a	1
199.837	0.399997319	SPEEDWAY	lure	n/a	n/a	n/a	1
200.237	0.349995752	ITINERARY	lure	n/a	n/a	n/a	1
200.587	0.33332907	GEOGRAPHER	lure	n/a	n/a	n/a	1
200.92	0.49999241	BEET	lure	n/a	n/a	n/a	1
201.42	0.533327055	GUERRILLA	lure	n/a	n/a	n/a	1
201.953	0.483324919	RIBOFLAVIN	lure	n/a	n/a	n/a	1
202.437	0.399995723	REALIST	lure	n/a	n/a	n/a	1
202.837	0.483324999	TON	lure	n/a	n/a	n/a	1
203.32	0.466661298	MEALTIME	lure	n/a	n/a	n/a	1
203.787	0.316662058	INSOMNIA	lure	n/a	n/a	n/a	1
204.103	0.566654287	IDOL	lure	n/a	n/a	n/a	1
204.67	0.716661268	VIXEN	lure	n/a	n/a	n/a	1
205.387	0.420394882	INCUMBENCY	lure	n/a	n/a	n/a	1
205.807	0.562921728	HANGUP	lure	n/a	n/a	n/a	1
206.37	0.349998713	CHANDELIER	lure	n/a	n/a	n/a	1
206.72	1.066650299	MELON	fruit	678	2	2	1
207.787	0.433328131	BUTCHERY	lure	n/a	n/a	n/a	1
208.22	0.749984683	STOCKYARD	lure	n/a	n/a	n/a	1
208.97	0.702027174	PUTTY	lure	n/a	n/a	n/a	1
209.672	0.600566675	NOMINEE	lure	n/a	n/a	n/a	1
210.272	0.364100977	FLUORIDE	lure	n/a	n/a	n/a	1
210.637	0.599946909	TRINITY	lure	n/a	n/a	n/a	1
211.236	0.416658219	ABDOMEN	lure	n/a	n/a	n/a	1
211.653	0.466703891	SODA	lure	n/a	n/a	n/a	1
212.12	0.749946226	BLURB	lure	n/a	n/a	n/a	1
212.87	0.45004999	VOLTAGE	lure	n/a	n/a	n/a	1
213.32	0.699936816	YELLER	lure	n/a	n/a	n/a	1
214.02	0.700128138	POD	lure	n/a	n/a	n/a	1
214.72	0.499896374	SKIT	lure	n/a	n/a	n/a	1
215.22	0.616616287	DUST	short	n/a	n/a	n/a	1
215.836	0.416660419	METAPHYSIC	lure	n/a	n/a	n/a	1
216.253	0.433371745	SIMULATION	lure	n/a	n/a	n/a	1
216.686	0.649944381	OPIATE	lure	n/a	n/a	n/a	1
217.336	0.666711328	NEUROLOGY	lure	n/a	n/a	n/a	1
218.003	0.699937659	HAIRBRUSH	lure	n/a	n/a	n/a	1
218.703	0.466655884	BOW	lure	n/a	n/a	n/a	1
219.17	0.699987831	ARMOR	lure	n/a	n/a	n/a	1
219.87	0.666662394	GODMOTHER	lure	n/a	n/a	n/a	1
220.536	0.633371301	SALIVA	lure	n/a	n/a	n/a	1
221.17	0.399950372	PROVERB	lure	n/a	n/a	n/a	1
221.57	0.3167047	DUD	lure	n/a	n/a	n/a	1
221.886	0.666656962	ROUGHNECK	lure	n/a	n/a	n/a	1
222.553	0.54994705	LIVERWURST	lure	n/a	n/a	n/a	1
223.103	0.749989013	WHITECAP	lure	n/a	n/a	n/a	1
223.853	0.433372935	FORMULA	lure	n/a	n/a	n/a	1
224.286	0.499946177	TESTAMENT	lure	n/a	n/a	n/a	1
224.786	0.633327943	DISTENSION	lure	n/a	n/a	n/a	1
225.42	0.65003692	THRUSTER	lure	n/a	n/a	n/a	1
226.07	0.683321629	ARCHDUKE	lure	n/a	n/a	n/a	1
226.753	n/a	RELAXATION	lure	n/a	n/a	n/a	1
238.023	0.363094884	CARIBOU	lure	n/a	n/a	n/a	1
238.386	0.749991361	JAILER	lure	n/a	n/a	n/a	1
239.136	0.499990936	DECOY	lure	n/a	n/a	n/a	1
239.636	0.533328121	PEARL	lure	n/a	n/a	n/a	1
240.169	0.349993957	STUDENT	lure	n/a	n/a	n/a	1
240.519	0.416663642	DISHCLOTH	lure	n/a	n/a	n/a	1
240.936	0.599992165	PURPOSE	lure	n/a	n/a	n/a	1
241.536	0.766656348	EVACUATION	lure	n/a	n/a	n/a	1
242.303	1.016648574	MULBERRY	fruit	703	2	2	1
243.319	0.683326157	BULLOCK	lure	n/a	n/a	n/a	1
244.003	0.649989911	APARTMENT	lure	n/a	n/a	n/a	1
244.653	0.366725623	SLEIGH	lure	n/a	n/a	n/a	1
245.019	0.616593154	APPETIZER	lure	n/a	n/a	n/a	1
245.636	0.316707489	DAD	lure	n/a	n/a	n/a	1
245.953	0.38333149	WEAVER	lure	n/a	n/a	n/a	1
246.336	0.650053178	TARANTULA	lure	n/a	n/a	n/a	1
246.986	0.516548064	TAKER	lure	n/a	n/a	n/a	1
247.503	0.416662178	MAVERICK	lure	n/a	n/a	n/a	1
247.919	0.316661389	CARRYOUT	lure	n/a	n/a	n/a	1
248.236	0.583324553	VODKA	lure	n/a	n/a	n/a	1
248.819	0.333328644	SARCASM	lure	n/a	n/a	n/a	1
249.153	0.549991878	OBLIVION	lure	n/a	n/a	n/a	1
249.703	0.466660593	LEDGE	lure	n/a	n/a	n/a	1
250.169	0.616659287	DUST	short	n/a	n/a	n/a	1
250.786	0.399992783	MISTRIAL	lure	n/a	n/a	n/a	1
251.186	0.416661306	QUIZMASTER	lure	n/a	n/a	n/a	1
251.603	0.566717003	RESURGENCE	lure	n/a	n/a	n/a	1
252.169	0.383270241	ONYX	lure	n/a	n/a	n/a	1
252.553	0.733376881	MISSION	lure	n/a	n/a	n/a	1
253.286	0.766661792	PEA	lure	n/a	n/a	n/a	1
254.053	0.352586123	EMIGRANT	lure	n/a	n/a	n/a	1
254.405	0.530730196	ELASTICITY	lure	n/a	n/a	n/a	1
254.936	0.399940407	IMPRESSION	lure	n/a	n/a	n/a	1
255.336	0.350053072	FAMILY	lure	n/a	n/a	n/a	1
255.686	0.566657258	LIGHTHOUSE	lure	n/a	n/a	n/a	1
256.253	0.6665991	OCCUPANT	lure	n/a	n/a	n/a	1
256.919	0.61665944	PROMINENCE	lure	n/a	n/a	n/a	1
257.536	0.600045402	ADOPTION	lure	n/a	n/a	n/a	1
258.136	0.666601815	BURGLARY	lure	n/a	n/a	n/a	1
258.802	2.049971988	BARREL	long	n/a	n/a	n/a	1
260.852	0.716657919	HANDFUL	lure	n/a	n/a	n/a	1
261.569	0.467672862	PATH	lure	n/a	n/a	n/a	1
262.037	0.59897738	OUTRAGE	lure	n/a	n/a	n/a	1
262.636	0.449992223	CLIPBOARD	lure	n/a	n/a	n/a	1
263.086	0.333388135	DICTATION	lure	n/a	n/a	n/a	1
263.419	0.333323561	COLLECTION	lure	n/a	n/a	n/a	1
263.752	0.716603716	LIGHTSHIP	lure	n/a	n/a	n/a	1
264.469	0.533379639	CULT	lure	n/a	n/a	n/a	1
265.002	0.566604852	ACQUITTAL	lure	n/a	n/a	n/a	1
265.569	0.583324391	DRAWBACK	lure	n/a	n/a	n/a	1
266.152	0.76665623	WELDER	lure	n/a	n/a	n/a	1
266.919	1.016652308	PEAR	fruit	831	2	2	1
267.936	0.61665848	MOONSHINE	lure	n/a	n/a	n/a	1
268.552	0.666702198	ENTERPRISE	lure	n/a	n/a	n/a	1
269.219	0.549946614	CASTER	lure	n/a	n/a	n/a	1
269.769	0.466723965	FATALISM	lure	n/a	n/a	n/a	1
270.236	0.366598365	RAILROAD	lure	n/a	n/a	n/a	1
270.602	0.500047708	SERPENT	lure	n/a	n/a	n/a	1
271.102	0.733326968	CELL	lure	n/a	n/a	n/a	1
271.836	0.633265389	IMMEDIACY	lure	n/a	n/a	n/a	1
272.469	0.350053103	FORE	lure	n/a	n/a	n/a	1
272.819	0.649977564	PLAYWRIGHT	lure	n/a	n/a	n/a	1
273.469	0.349950416	STRIPE	lure	n/a	n/a	n/a	1
273.819	0.533325614	TALKER	lure	n/a	n/a	n/a	1
274.352	0.699990769	WAREHOUSE	lure	n/a	n/a	n/a	1
275.052	0.74998809	SINGER	lure	n/a	n/a	n/a	1
275.802	0.616659538	MIRROR	short	n/a	n/a	n/a	1
276.419	0.416660908	PLAYOFF	lure	n/a	n/a	n/a	1
276.836	0.616656963	INFIRMITY	lure	n/a	n/a	n/a	1
277.452	0.416660758	EARDRUM	lure	n/a	n/a	n/a	1
277.869	0.533326867	CHASER	lure	n/a	n/a	n/a	1
278.402	0.766656585	STRINGENCY	lure	n/a	n/a	n/a	1
279.169	0.433383225	COVERALL	lure	n/a	n/a	n/a	1
279.602	0.399936934	STINT	lure	n/a	n/a	n/a	1
280.002	0.599991297	CAMEO	lure	n/a	n/a	n/a	1
280.602	0.349996343	THROWBACK	lure	n/a	n/a	n/a	1
280.952	0.516660763	ALE	lure	n/a	n/a	n/a	1
281.469	0.399992905	SUBMARINE	lure	n/a	n/a	n/a	1
281.869	0.633324166	SINNER	lure	n/a	n/a	n/a	1
282.502	0.400049778	TYPEWRITER	lure	n/a	n/a	n/a	1
282.902	0.633325537	GUNNER	lure	n/a	n/a	n/a	1
283.536	0.516602099	SKULLCAP	lure	n/a	n/a	n/a	1
284.052	1.016710852	GRAPEFRUIT	fruit	802	2	2	1
285.069	0.64999307	MACHINERY	lure	n/a	n/a	n/a	1
285.719	0.316663166	CHECKLIST	lure	n/a	n/a	n/a	1
286.035	0.599931335	LOLLIPOP	lure	n/a	n/a	n/a	1
286.635	0.316716379	KARMA	lure	n/a	n/a	n/a	1
286.952	0.683267363	POSITIVISM	lure	n/a	n/a	n/a	1
287.635	0.750047877	SUNDOWN	lure	n/a	n/a	n/a	1
288.385	0.399938821	ROSEWOOD	lure	n/a	n/a	n/a	1
288.785	0.383802395	FRIGHT	lure	n/a	n/a	n/a	1
289.169	0.70179238	BANDIT	lure	n/a	n/a	n/a	1
289.871	0.531106542	ADJUSTMENT	lure	n/a	n/a	n/a	1
290.402	0.566600902	POPULATION	lure	n/a	n/a	n/a	1
290.969	0.53337078	TUGBOAT	lure	n/a	n/a	n/a	1
291.502	0.383282575	SUGARCANE	lure	n/a	n/a	n/a	1
291.885	2.016636759	CART	long	n/a	n/a	n/a	1
293.902	0.749990559	GEESE	lure	n/a	n/a	n/a	1
294.652	0.483327278	YACHT	lure	n/a	n/a	n/a	1
295.135	0.516657509	TANNER	lure	n/a	n/a	n/a	1
295.652	0.333329336	ANTHEM	lure	n/a	n/a	n/a	1
295.985	0.650051241	DISCLAIMER	lure	n/a	n/a	n/a	1
296.635	0.666598318	DEFENCE	lure	n/a	n/a	n/a	1
297.302	0.383323099	EPISODE	lure	n/a	n/a	n/a	1
297.685	0.333332351	COLLARBONE	lure	n/a	n/a	n/a	1
298.019	0.383384077	SCOURGE	lure	n/a	n/a	n/a	1
298.402	0.733265943	ANTIDOTE	lure	n/a	n/a	n/a	1
299.135	0.433328617	ALMANAC	lure	n/a	n/a	n/a	1
299.569	0.483326064	SCAR	lure	n/a	n/a	n/a	1
300.052	0.649991569	PIANO	short	n/a	n/a	n/a	1
300.702	0.566658251	HAY	lure	n/a	n/a	n/a	1
301.269	0.53332586	COLONY	lure	n/a	n/a	n/a	1
301.802	0.566717386	INQUIRY	lure	n/a	n/a	n/a	1
302.369	0.749930822	MATRIX	lure	n/a	n/a	n/a	1
303.119	0.683324481	FLAGPOLE	lure	n/a	n/a	n/a	1
303.802	0.649989133	CAT	lure	n/a	n/a	n/a	1
304.452	0.699989293	NUMERATION	lure	n/a	n/a	n/a	1
305.152	0.533385659	CREATION	lure	n/a	n/a	n/a	1
305.685	0.63326679	VISCOSITY	lure	n/a	n/a	n/a	1
306.318	0.583386864	DEDICATION	lure	n/a	n/a	n/a	1
306.902	0.7665946	COMEDIAN	lure	n/a	n/a	n/a	1
307.668	0.366720247	CHARIOT	lure	n/a	n/a	n/a	1
308.035	0.616598788	TIRE	short	n/a	n/a	n/a	1
308.652	0.683322892	SCENERY	lure	n/a	n/a	n/a	1
309.335	0.6333248	PERJURY	lure	n/a	n/a	n/a	1
309.968	0.483327678	DYNASTY	lure	n/a	n/a	n/a	1
310.452	0.73332031	BOROUGH	lure	n/a	n/a	n/a	1
311.185	0.583369174	IMAGERY	lure	n/a	n/a	n/a	1
311.768	0.599946872	VICTORY	lure	n/a	n/a	n/a	1
312.368	0.649991043	RUNT	lure	n/a	n/a	n/a	1
313.018	0.649992962	GADGET	lure	n/a	n/a	n/a	1
313.668	0.433326229	PINEWOOD	lure	n/a	n/a	n/a	1
314.102	0.399994336	HOORAY	lure	n/a	n/a	n/a	1
314.502	0.650051758	OILMAN	lure	n/a	n/a	n/a	1
315.152	0.483323503	SCAFFOLD	lure	n/a	n/a	n/a	1
315.635	0.433269757	SOMBRERO	lure	n/a	n/a	n/a	1
316.068	2.016639972	CABLE	long	n/a	n/a	n/a	1
318.085	0.43332423	BACKBONE	lure	n/a	n/a	n/a	1
318.518	0.33332898	VIOLET	lure	n/a	n/a	n/a	1
318.852	0.566655321	SWINGER	lure	n/a	n/a	n/a	1
319.418	0.433331323	WATERCOLOR	lure	n/a	n/a	n/a	1
319.852	0.549992038	IRRITANT	lure	n/a	n/a	n/a	1
320.402	0.666658647	NUGGET	lure	n/a	n/a	n/a	1
321.068	0.349992693	DESERT	lure	n/a	n/a	n/a	1
321.418	0.416662715	MODESTY	lure	n/a	n/a	n/a	1
321.835	0.583323611	SATIRE	lure	n/a	n/a	n/a	1
322.418	0.599987969	EMINENCE	lure	n/a	n/a	n/a	1
323.018	0.716662099	BOTANIST	lure	n/a	n/a	n/a	1
323.735	0.73331751	VINYL	lure	n/a	n/a	n/a	1
324.468	0.649994391	BILLBOARD	lure	n/a	n/a	n/a	1
325.118	0.616659169	FERRY	short	n/a	n/a	n/a	1
325.735	0.599993709	VULTURE	lure	n/a	n/a	n/a	1
326.335	0.533323779	OUTRIGGER	lure	n/a	n/a	n/a	1
326.868	0.483327025	GROCERY	lure	n/a	n/a	n/a	1
327.352	0.583326535	TURNCOAT	lure	n/a	n/a	n/a	1
327.935	0.466657674	DETECTION	lure	n/a	n/a	n/a	1
328.401	0.733324084	IMPUTATION	lure	n/a	n/a	n/a	1
329.135	0.316661103	PAD	lure	n/a	n/a	n/a	1
329.451	0.566658187	TRAINER	lure	n/a	n/a	n/a	1
330.018	0.616659365	ATTENDANT	lure	n/a	n/a	n/a	1
330.635	0.64999075	WRECKAGE	lure	n/a	n/a	n/a	1
331.285	0.73332279	DRUMBEAT	lure	n/a	n/a	n/a	1
332.018	0.516657976	WHISTLE	lure	n/a	n/a	n/a	1
332.535	0.366664876	PHOSPHATE	lure	n/a	n/a	n/a	1
332.901	0.533323637	TEACAKE	lure	n/a	n/a	n/a	1
333.435	2.016638779	ORNAMENT	long	n/a	n/a	n/a	1
335.451	0.316660903	CELLOPHANE	lure	n/a	n/a	n/a	1
335.768	0.549993998	TAMBOURINE	lure	n/a	n/a	n/a	1
336.318	0.749987692	GOAT	lure	n/a	n/a	n/a	1
337.068	0.399993487	NOISE	lure	n/a	n/a	n/a	1
337.468	0.399995387	CONTINENT	lure	n/a	n/a	n/a	1
337.868	0.616657984	PEN	lure	n/a	n/a	n/a	1
338.485	0.483328144	SIDEKICK	lure	n/a	n/a	n/a	1
338.968	0.33332792	TONIC	lure	n/a	n/a	n/a	1
339.301	0.433325667	FUR	lure	n/a	n/a	n/a	1
339.735	0.549993155	INSET	lure	n/a	n/a	n/a	1
340.285	0.366660679	PROVIDENT	lure	n/a	n/a	n/a	1
340.651	0.499996898	ORATOR	lure	n/a	n/a	n/a	1
341.151	0.366658022	REFRESHER	lure	n/a	n/a	n/a	1
341.518	0.666656406	BOTTLE	short	n/a	n/a	n/a	1
342.185	0.733323011	CESSATION	lure	n/a	n/a	n/a	1
342.918	0.699990901	VELVETEEN	lure	n/a	n/a	n/a	1
343.618	0.699992125	WORKBENCH	lure	n/a	n/a	n/a	1
344.318	0.733380036	GUITAR	lure	n/a	n/a	n/a	1
345.051	0.549934226	SOLIDITY	lure	n/a	n/a	n/a	1
345.601	0.516658893	BEEFSTEAK	lure	n/a	n/a	n/a	1
346.118	0.499992815	HABITATION	lure	n/a	n/a	n/a	1
346.618	0.550050727	PUPPET	lure	n/a	n/a	n/a	1
347.168	0.33327104	APPLICATOR	lure	n/a	n/a	n/a	1
347.501	0.616656929	BLOWUP	lure	n/a	n/a	n/a	1
348.118	0.616698409	PROCEDURE	lure	n/a	n/a	n/a	1
348.735	0.649987243	SAPPHIRE	lure	n/a	n/a	n/a	1
349.385	0.383292919	WHOPPER	lure	n/a	n/a	n/a	1
349.768	2.01663618	PARCEL	long	n/a	n/a	n/a	1
351.784	0.666659073	NUN	lure	n/a	n/a	n/a	1
352.451	0.499992716	AREA	lure	n/a	n/a	n/a	1
352.951	0.449991931	VIABILITY	lure	n/a	n/a	n/a	1
353.401	0.533379308	UNDERWORLD	lure	n/a	n/a	n/a	1
353.935	0.366610141	SMOKESTACK	lure	n/a	n/a	n/a	1
354.301	0.416659229	VESSEL	lure	n/a	n/a	n/a	1
354.718	0.599988117	MANSION	lure	n/a	n/a	n/a	1
355.318	0.400252885	POSSE	lure	n/a	n/a	n/a	1
355.718	0.349738329	MIDPOINT	lure	n/a	n/a	n/a	1
356.068	0.683326372	MOWER	lure	n/a	n/a	n/a	1
356.751	0.599985353	SALTWATER	lure	n/a	n/a	n/a	1
357.351	0.483329618	TROLLEY	lure	n/a	n/a	n/a	1
357.834	0.616657387	RULER	short	n/a	n/a	n/a	1
358.451	0.766659496	VISAGE	lure	n/a	n/a	n/a	1
359.218	0.749983853	BRIDGEWORK	lure	n/a	n/a	n/a	1
359.968	0.59999654	SCANDAL	lure	n/a	n/a	n/a	1
360.568	0.416660557	ADORATION	lure	n/a	n/a	n/a	1
360.984	0.333323698	CLAPBOARD	lure	n/a	n/a	n/a	1
361.318	0.699990164	PLAYBILL	lure	n/a	n/a	n/a	1
362.018	0.366667109	PEASANT	lure	n/a	n/a	n/a	1
362.384	0.566655326	MEDLEY	lure	n/a	n/a	n/a	1
362.951	0.649988501	SANDMAN	lure	n/a	n/a	n/a	1
363.601	0.749995535	DISREPAIR	lure	n/a	n/a	n/a	1
364.351	0.516658722	ORGANIZER	lure	n/a	n/a	n/a	1
364.868	0.349989719	SHREDDER	lure	n/a	n/a	n/a	1
365.218	0.49999842	AUTOLOADER	lure	n/a	n/a	n/a	1
365.718	0.516660602	WARRIOR	lure	n/a	n/a	n/a	1
366.234	1.01665091	BAn/aA	fruit	n/a	n/a	2	0
367.251	0.599992783	EYEBROW	lure	99	2	n/a	0
367.851	0.383327412	PUDDING	lure	n/a	n/a	n/a	1
368.234	0.716656345	CIVILITY	lure	n/a	n/a	n/a	1
368.951	0.749983795	GUMDROP	lure	n/a	n/a	n/a	1
369.701	0.466665782	CURRICULUM	lure	n/a	n/a	n/a	1
370.168	0.599990169	SCOREBOARD	lure	n/a	n/a	n/a	1
370.768	0.399990005	BEAUTICIAN	lure	n/a	n/a	n/a	1
371.168	0.783327359	RECAP	lure	n/a	n/a	n/a	1
371.951	0.566659248	SHRUBBERY	lure	n/a	n/a	n/a	1
372.518	0.69998386	PASSERBY	lure	112	2	n/a	0
373.218	0.449999437	NONFICTION	lure	n/a	n/a	n/a	1
373.668	0.699987968	CHARACTER	lure	n/a	n/a	n/a	1
374.368	2.016635267	DITCH	long	n/a	n/a	n/a	1
376.384	0.666661447	SCHOOLROOM	lure	n/a	n/a	n/a	1
377.051	0.73332145	SYMBOLISM	lure	n/a	n/a	n/a	1
377.784	0.73332519	BLASPHEMY	lure	n/a	n/a	n/a	1
378.517	0.716655653	BAZAAR	lure	n/a	n/a	n/a	1
379.234	0.366707869	EMBODIMENT	lure	n/a	n/a	n/a	1
379.601	0.599985717	CLOSEUP	lure	n/a	n/a	n/a	1
380.201	0.551934723	SEPARATISM	lure	n/a	n/a	n/a	1
380.753	0.481344317	FLOOZY	lure	n/a	n/a	n/a	1
381.234	0.749987551	BOOKWORM	lure	n/a	n/a	n/a	1
381.984	0.33333059	BATHROBE	lure	n/a	n/a	n/a	1
382.317	0.666707583	AMPLIFIER	lure	n/a	n/a	n/a	1
382.984	2.016590036	RAINBOW	long	n/a	n/a	n/a	1
385.001	0.533361801	TOOTHBRUSH	lure	n/a	n/a	n/a	1
385.534	0.333292247	ELATION	lure	n/a	n/a	n/a	1
385.867	0.799986561	DRAGONFLY	lure	n/a	n/a	n/a	1
386.667	0.683325415	SLAW	lure	n/a	n/a	n/a	1
387.351	0.603324486	SORCERER	lure	n/a	n/a	n/a	1
387.954	0.430032824	VERTIGO	lure	n/a	n/a	n/a	1
388.384	0.666617697	CHALICE	lure	n/a	n/a	n/a	1
389.051	0.500030729	ERASURE	lure	n/a	n/a	n/a	1
389.551	0.699953324	SONG	lure	n/a	n/a	n/a	1
390.251	0.649987904	LETTER	lure	n/a	n/a	n/a	1
390.901	0.766658184	SILHOUETTE	lure	n/a	n/a	n/a	1
391.667	0.616658656	TEAR	short	n/a	n/a	n/a	1
392.284	0.766652388	WHACKER	lure	n/a	n/a	n/a	1
393.051	0.633327871	LIMOUSINE	lure	n/a	n/a	n/a	1
393.684	0.399994339	PARABLE	lure	n/a	n/a	n/a	1
394.084	0.683318001	BENEFICENT	lure	n/a	n/a	n/a	1
394.767	0.649997092	WORKBOOK	lure	n/a	n/a	n/a	1
395.417	0.716656487	WOAD	lure	n/a	n/a	n/a	1
396.134	0.649984627	NAPE	lure	n/a	n/a	n/a	1
396.784	0.549992298	CORRELATE	lure	n/a	n/a	n/a	1
397.334	0.616663696	BEACON	lure	n/a	n/a	n/a	1
397.951	0.69998635	LEADER	lure	n/a	n/a	n/a	1
398.65	0.799990969	ROOK	lure	n/a	n/a	n/a	1
399.45	0.533327149	SPORTSMAN	lure	n/a	n/a	n/a	1
399.984	1.016646875	BERRY	fruit	n/a	n/a	2	0
401	0.39999993	FIREBRICK	lure	5	2	n/a	0
401.4	0.737020131	SMOCK	lure	n/a	n/a	n/a	1
402.137	0.579625616	LARD	lure	n/a	n/a	n/a	1
402.717	0.633326948	BATTERY	lure	n/a	n/a	n/a	1
403.35	0.483326906	WAIVER	lure	n/a	n/a	n/a	1
403.834	0.749985877	PLANNER	lure	n/a	n/a	n/a	1
404.584	0.74999231	LETTERMAN	lure	n/a	n/a	n/a	1
405.334	0.649991547	INFIELD	lure	n/a	n/a	n/a	1
405.984	0.76665397	POPPYCOCK	lure	n/a	n/a	n/a	1
406.75	0.416662657	ALTERNATOR	lure	n/a	n/a	n/a	1
407.167	0.566704369	STEAMBOAT	lure	n/a	n/a	n/a	1
407.734	0.533321918	PAPERBOY	lure	n/a	n/a	n/a	1
408.267	0.616616085	MATTRESS	short	n/a	n/a	n/a	1
408.884	0.733319871	CHIPMUNK	lure	n/a	n/a	n/a	1
409.617	0.55004186	EVOCATION	lure	n/a	n/a	n/a	1
410.167	0.549939937	BECK	lure	n/a	n/a	n/a	1
410.717	0.633329903	CUMULATION	lure	n/a	n/a	n/a	1
411.35	0.683322669	SHIPLOAD	lure	n/a	n/a	n/a	1
412.034	0.633325875	INJUSTICE	lure	n/a	n/a	n/a	1
412.667	0.43332595	SHIPMAN	lure	n/a	n/a	n/a	1
413.1	0.316657258	JUBILATION	lure	n/a	n/a	n/a	1
413.417	0.666661793	ALTITUDE	lure	n/a	n/a	n/a	1
414.084	0.516659532	REFINERY	lure	n/a	n/a	n/a	1
414.6	0.604125438	EPIDEMIC	lure	n/a	n/a	n/a	1
415.204	0.679192185	POOF	lure	n/a	n/a	n/a	1
415.884	0.566651693	ALTERATION	lure	n/a	n/a	n/a	1
416.45	1.016651969	CHERRY	fruit	900	2	2	1
417.467	0.533330473	CATHEDRAL	lure	n/a	n/a	n/a	1
418	0.599990808	DIFFICULTY	lure	n/a	n/a	n/a	1
418.6	0.399995144	WARDROBE	lure	n/a	n/a	n/a	1
419	0.333329792	VALET	lure	n/a	n/a	n/a	1
419.334	0.766654912	CHILD	lure	n/a	n/a	n/a	1
420.1	0.316661323	TRIBE	lure	n/a	n/a	n/a	1
420.417	0.499995391	DIVULGENCE	lure	n/a	n/a	n/a	1
420.917	0.383321718	CONCAVITY	lure	n/a	n/a	n/a	1
421.3	0.466659944	COHORT	lure	n/a	n/a	n/a	1
421.767	0.503812619	HISTORY	lure	n/a	n/a	n/a	1
422.271	0.71284093	CORRIDOR	lure	n/a	n/a	n/a	1
422.983	0.633322713	FOYER	lure	n/a	n/a	n/a	1
423.617	0.583323096	CARNATION	lure	n/a	n/a	n/a	1
424.2	0.566664163	MUDSLINGER	lure	n/a	n/a	n/a	1
424.767	2.016638915	NOVEL	long	n/a	n/a	n/a	1
426.783	0.633322925	SAWDUST	lure	n/a	n/a	n/a	1
427.417	0.566659754	BRIDE	lure	n/a	n/a	n/a	1
427.983	0.449987825	DETECTIVE	lure	n/a	n/a	n/a	1
428.433	0.333332837	ANALOGY	lure	n/a	n/a	n/a	1
428.767	0.516704434	DUEL	lure	n/a	n/a	n/a	1
429.283	0.616657214	SEXTON	lure	n/a	n/a	n/a	1
429.9	0.349950719	SUNSET	lure	n/a	n/a	n/a	1
430.25	0.499993357	HEARER	lure	n/a	n/a	n/a	1
430.75	0.583326411	SEAFRONT	lure	n/a	n/a	n/a	1
431.333	0.333327724	SCEPTICISM	lure	n/a	n/a	n/a	1
431.667	0.366656601	FEEDER	lure	n/a	n/a	n/a	1
432.033	0.350000107	RINGLEADER	lure	n/a	n/a	n/a	1
432.383	0.683325496	PROXIMITY	lure	n/a	n/a	n/a	1
433.067	2.016637516	FOSSIL	long	n/a	n/a	n/a	1
435.083	0.516655967	WRISTBAND	lure	n/a	n/a	n/a	1
435.6	0.61738418	EARSHOT	lure	n/a	n/a	n/a	1
436.217	0.553791547	COMPRESSOR	lure	n/a	n/a	n/a	1
436.771	0.678850686	MARBLE	lure	n/a	n/a	n/a	1
437.45	0.483340879	MAPLE	lure	n/a	n/a	n/a	1
437.933	0.499929587	COMMUNITY	lure	n/a	n/a	n/a	1
438.433	0.633320946	FACADE	lure	n/a	n/a	n/a	1
439.067	0.416710013	BALL	lure	n/a	n/a	n/a	1
439.483	0.666611123	ACCOUNTANT	lure	n/a	n/a	n/a	1
440.15	0.717151069	BONEHEAD	lure	n/a	n/a	n/a	1
440.867	0.682827601	ARTISTRY	lure	n/a	n/a	n/a	1
441.55	2.050018287	TAPE	long	n/a	n/a	n/a	1
443.6	0.466614488	SECT	lure	n/a	n/a	n/a	1
444.067	0.583370081	TRANSDUCER	lure	n/a	n/a	n/a	1
444.65	0.71764491	RENEGADE	lure	n/a	n/a	n/a	1
445.368	0.433563221	HEDGEHOG	lure	n/a	n/a	n/a	1
445.801	0.682053463	SCRUTINY	lure	n/a	n/a	n/a	1
446.483	0.433328664	ERRAND	lure	n/a	n/a	n/a	1
446.916	0.39998815	SUPERVISOR	lure	n/a	n/a	n/a	1
447.316	0.349998831	SEAMANSHIP	lure	n/a	n/a	n/a	1
447.666	0.466658394	WIDOW	lure	n/a	n/a	n/a	1
448.133	0.599993745	WISDOM	lure	n/a	n/a	n/a	1
448.733	0.466657649	KNOLL	lure	n/a	n/a	n/a	1
449.2	0.483331211	KIDDER	lure	n/a	n/a	n/a	1
449.683	0.616656505	CLOAK	short	n/a	n/a	n/a	1
450.3	0.69998627	CORNFLOUR	lure	n/a	n/a	n/a	1
451	0.633327306	SAVER	lure	n/a	n/a	n/a	1
451.633	0.599988674	SOLICITUDE	lure	n/a	n/a	n/a	1
452.233	0.550277002	YONDER	lure	n/a	n/a	n/a	1
452.783	0.399710772	CROISSANT	lure	n/a	n/a	n/a	1
453.183	0.399995057	DOOR	lure	n/a	n/a	n/a	1
453.583	0.633325492	PASSPORT	lure	n/a	n/a	n/a	1
454.216	0.649992913	FERRYBOAT	lure	n/a	n/a	n/a	1
454.866	0.533322512	TEASPOON	lure	n/a	n/a	n/a	1
455.4	0.583326417	PAGEANT	lure	n/a	n/a	n/a	1
455.983	0.616659271	BANKER	lure	n/a	n/a	n/a	1
456.6	0.320134884	WHEELBASE	lure	n/a	n/a	n/a	1
456.92	0.650569522	CHAPTER	lure	n/a	n/a	n/a	1
457.57	0.379275644	LIQUEUR	lure	n/a	n/a	n/a	1
457.95	0.61665413	DISARRAY	lure	n/a	n/a	n/a	1
458.566	0.649990598	GHETTO	lure	n/a	n/a	n/a	1
459.216	0.416664892	EARACHE	lure	n/a	n/a	n/a	1
459.633	0.649986268	SANDER	lure	n/a	n/a	n/a	1
460.283	0.516660142	MOMENTUM	lure	n/a	n/a	n/a	1
460.8	0.633330038	HINDSIGHT	lure	n/a	n/a	n/a	1
461.433	0.716653199	URBANISM	lure	n/a	n/a	n/a	1
462.15	0.549992183	CRUCIFIX	lure	n/a	n/a	n/a	1
462.7	0.49999207	BLACKHEAD	lure	n/a	n/a	n/a	1
463.2	0.366662308	LIMB	lure	n/a	n/a	n/a	1
463.566	0.516656786	EXTRACT	lure	n/a	n/a	n/a	1
464.083	0.76666229	EMBANKMENT	lure	n/a	n/a	n/a	1
464.85	n/a	ADEQUACY	lure	n/a	n/a	n/a	1