onset	duration	stim	cond	RT	resp	cresp	acc
4.042	0.366659563	DUCKLING	lure	n/a	n/a	n/a	1
4.409	0.599989523	ORCHESTRA	lure	n/a	n/a	n/a	1
5.009	0.349997416	MENTHOL	lure	n/a	n/a	n/a	1
5.359	0.749990727	MIXER	lure	n/a	n/a	n/a	1
6.109	0.333329439	NAVIGATOR	lure	n/a	n/a	n/a	1
6.442	0.433329311	FORMAT	lure	n/a	n/a	n/a	1
6.875	0.43332295	BARRACUDA	lure	n/a	n/a	n/a	1
7.309	0.733324672	JOY	lure	n/a	n/a	n/a	1
8.042	0.616652646	MIRROR	short	n/a	n/a	n/a	1
8.659	0.45006435	OUTFLOW	lure	n/a	n/a	n/a	1
9.109	0.38326115	THRILLER	lure	n/a	n/a	n/a	1
9.492	0.433392922	CHOW	lure	n/a	n/a	n/a	1
9.925	0.535175302	MASON	lure	n/a	n/a	n/a	1
10.46	0.731563379	POLLUTANT	lure	n/a	n/a	n/a	1
11.192	0.766504481	FORESTRY	lure	n/a	n/a	n/a	1
11.959	0.499988248	RACQUET	lure	n/a	n/a	n/a	1
12.459	0.683327051	SEAWEED	lure	n/a	n/a	n/a	1
13.142	0.749990745	INLET	lure	n/a	n/a	n/a	1
13.892	0.566656779	DIFFUSION	lure	n/a	n/a	n/a	1
14.458	0.433386457	ILLUSION	lure	n/a	n/a	n/a	1
14.892	0.399975514	BLOWHOLE	lure	n/a	n/a	n/a	1
15.292	0.749945501	ECTOPLASM	lure	n/a	n/a	n/a	1
16.042	0.350001856	FALCON	lure	n/a	n/a	n/a	1
16.392	0.616656053	TEAR	short	n/a	n/a	n/a	1
17.008	0.650028136	PALLET	lure	n/a	n/a	n/a	1
17.658	0.36662327	RECLUSE	lure	n/a	n/a	n/a	1
18.025	0.549990048	INNKEEPER	lure	n/a	n/a	n/a	1
18.575	0.716693982	GLAMOR	lure	n/a	n/a	n/a	1
19.292	0.599954893	ASPHALT	lure	n/a	n/a	n/a	1
19.892	0.400042828	RETAIL	lure	n/a	n/a	n/a	1
20.292	0.366612525	AFFAIR	lure	n/a	n/a	n/a	1
20.658	0.616660184	KNOWLEDGE	lure	n/a	n/a	n/a	1
21.275	0.649989682	FREEHOLDER	lure	n/a	n/a	n/a	1
21.925	0.349993682	CAESAREAN	lure	n/a	n/a	n/a	1
22.275	0.383376833	HINDRANCE	lure	n/a	n/a	n/a	1
22.658	0.39994467	HOSTILITY	lure	n/a	n/a	n/a	1
23.058	0.383329631	HEMISPHERE	lure	n/a	n/a	n/a	1
23.442	0.516658975	LONGITUDE	lure	n/a	n/a	n/a	1
23.958	0.736820199	AWNING	lure	n/a	n/a	n/a	1
24.695	0.379829839	ALIGNMENT	lure	n/a	n/a	n/a	1
25.075	2.01664016	FOSSIL	long	n/a	n/a	n/a	1
27.092	0.416709634	LARYNX	lure	n/a	n/a	n/a	1
27.508	0.483325112	HAREM	lure	n/a	n/a	n/a	1
27.992	0.599940232	LOVEBIRD	lure	n/a	n/a	n/a	1
28.592	0.570030756	RIGGER	lure	n/a	n/a	n/a	1
29.162	0.563290422	APOLOGY	lure	n/a	n/a	n/a	1
29.725	0.666694401	FRINGE	lure	n/a	n/a	n/a	1
30.392	0.733283531	DOUBTER	lure	n/a	n/a	n/a	1
31.125	0.466663183	WAGON	lure	n/a	n/a	n/a	1
31.592	0.416658547	VESTIBULE	lure	n/a	n/a	n/a	1
32.008	0.666660274	CRACKER	lure	n/a	n/a	n/a	1
32.675	0.549992431	KILOGRAM	lure	n/a	n/a	n/a	1
33.225	0.349992646	MOUTHWASH	lure	n/a	n/a	n/a	1
33.575	1.016653541	BERRY	fruit	696	2	2	1
34.592	0.316708271	BEDFELLOW	lure	n/a	n/a	n/a	1
34.908	0.333283143	OUTPOST	lure	n/a	n/a	n/a	1
35.242	0.599992134	TREATY	lure	n/a	n/a	n/a	1
35.842	0.533325444	COLLISION	lure	n/a	n/a	n/a	1
36.375	0.46670485	MEANIE	lure	n/a	n/a	n/a	1
36.842	0.599945998	SUBSYSTEM	lure	n/a	n/a	n/a	1
37.441	0.333329028	TOPOGRAPHY	lure	n/a	n/a	n/a	1
37.775	0.699984559	IMPUDENCE	lure	n/a	n/a	n/a	1
38.475	0.452414245	SHOWBOAT	lure	n/a	n/a	n/a	1
38.927	0.71556862	LEEWAY	lure	n/a	n/a	n/a	1
39.643	0.765328569	RETHINK	lure	n/a	n/a	n/a	1
40.408	0.616658417	SUPPLIER	lure	n/a	n/a	n/a	1
41.025	0.349994932	FORTE	lure	n/a	n/a	n/a	1
41.375	0.649985352	ROBIN	lure	n/a	n/a	n/a	1
42.025	2.016644086	CABLE	long	n/a	n/a	n/a	1
44.041	0.550036148	BYLAW	lure	n/a	n/a	n/a	1
44.591	0.716656995	DRAKE	lure	n/a	n/a	n/a	1
45.308	0.399947539	POWDERPUFF	lure	n/a	n/a	n/a	1
45.708	0.466662431	TONSIL	lure	n/a	n/a	n/a	1
46.175	0.35004037	SOLICITOR	lure	n/a	n/a	n/a	1
46.525	0.483281623	PAJAMA	lure	n/a	n/a	n/a	1
47.008	0.749989695	RAMPART	lure	n/a	n/a	n/a	1
47.758	0.616657828	THRUSH	lure	n/a	n/a	n/a	1
48.375	0.383325999	TRUCE	lure	n/a	n/a	n/a	1
48.758	0.683322506	SALINITY	lure	n/a	n/a	n/a	1
49.441	0.699992651	COTE	lure	n/a	n/a	n/a	1
50.141	2.016639809	RAINBOW	long	n/a	n/a	n/a	1
52.158	0.733321452	EMPHYSEMA	lure	n/a	n/a	n/a	1
52.891	0.349995979	TERRAIN	lure	n/a	n/a	n/a	1
53.241	0.383375039	TUNDRA	lure	n/a	n/a	n/a	1
53.625	0.549990815	CRASHER	lure	n/a	n/a	n/a	1
54.175	0.416614264	TIGHTROPE	lure	n/a	n/a	n/a	1
54.591	0.553066948	THICKET	lure	n/a	n/a	n/a	1
55.144	0.363632199	PERMAFROST	lure	n/a	n/a	n/a	1
55.508	0.666613692	VIBRANCY	lure	n/a	n/a	n/a	1
56.175	0.78332007	WITCH	lure	n/a	n/a	n/a	1
56.958	0.349996455	CONVEYOR	lure	n/a	n/a	n/a	1
57.308	0.333325428	REDCOAT	lure	n/a	n/a	n/a	1
57.641	0.349992147	ENDOWMENT	lure	n/a	n/a	n/a	1
57.991	0.749995624	TEAMWORK	lure	n/a	n/a	n/a	1
58.741	1.016647609	CANTELOUPE	fruit	786	2	2	1
59.758	0.316663758	SENSATION	lure	n/a	n/a	n/a	1
60.075	0.716658967	STABILITY	lure	n/a	n/a	n/a	1
60.791	0.749985302	OAF	lure	n/a	n/a	n/a	1
61.541	0.683322676	PRIMER	lure	n/a	n/a	n/a	1
62.224	0.649994396	WINDBAG	lure	n/a	n/a	n/a	1
62.874	0.599988064	THEOCRACY	lure	n/a	n/a	n/a	1
63.474	0.666657098	EVERYTHING	lure	n/a	n/a	n/a	1
64.141	0.449998466	POLLEN	lure	n/a	n/a	n/a	1
64.591	0.333330063	PEPPERCORN	lure	n/a	n/a	n/a	1
64.924	0.699990224	BACHELOR	lure	n/a	n/a	n/a	1
65.624	0.499992733	INDICATION	lure	n/a	n/a	n/a	1
66.124	0.566653435	WATCHMAKER	lure	n/a	n/a	n/a	1
66.691	0.3833328	SUPERNOVA	lure	n/a	n/a	n/a	1
67.074	1.016647153	CHERRY	fruit	772	2	2	1
68.091	0.699994214	CONDOLENCE	lure	n/a	n/a	n/a	1
68.791	0.485763252	COMPARISON	lure	n/a	n/a	n/a	1
69.277	0.347559151	ESCALATION	lure	n/a	n/a	n/a	1
69.624	0.549991926	DOUGHNUT	lure	n/a	n/a	n/a	1
70.174	0.68332407	VELOCITY	lure	n/a	n/a	n/a	1
70.858	0.383325002	INCOME	lure	n/a	n/a	n/a	1
71.241	0.549996356	ASSUMPTION	lure	n/a	n/a	n/a	1
71.791	0.416654855	RETAKE	lure	n/a	n/a	n/a	1
72.208	0.501048816	DECATHLON	lure	n/a	n/a	n/a	1
72.709	0.73226792	BILLFOLD	lure	n/a	n/a	n/a	1
73.441	0.449997218	DISBELIEF	lure	n/a	n/a	n/a	1
73.891	0.583326889	PRANK	lure	n/a	n/a	n/a	1
74.474	0.733321685	CLASSMATE	lure	n/a	n/a	n/a	1
75.208	1.016649659	CHERRY	fruit	679	2	2	1
76.224	0.666656303	DUCKY	lure	n/a	n/a	n/a	1
76.891	0.433332349	SHOELACE	lure	n/a	n/a	n/a	1
77.324	0.516655847	COMPOSURE	lure	n/a	n/a	n/a	1
77.841	0.599989187	DUMPLING	lure	n/a	n/a	n/a	1
78.441	0.666657293	SQUEALER	lure	n/a	n/a	n/a	1
79.108	0.766662603	IMPOSTURE	lure	n/a	n/a	n/a	1
79.874	0.666655511	ENCHANTER	lure	n/a	n/a	n/a	1
80.541	0.683319013	NEWSPRINT	lure	n/a	n/a	n/a	1
81.224	0.649992254	SURGERY	lure	n/a	n/a	n/a	1
81.874	0.466658489	IRRIGATION	lure	n/a	n/a	n/a	1
82.341	0.616659445	PATROLMEN	lure	n/a	n/a	n/a	1
82.958	0.666660876	RUMP	lure	n/a	n/a	n/a	1
83.624	0.616659032	MATTRESS	short	n/a	n/a	n/a	1
84.241	0.73331714	LITIGATION	lure	n/a	n/a	n/a	1
84.974	0.733328817	LANDROVER	lure	n/a	n/a	n/a	1
85.707	0.58331934	FEVER	lure	n/a	n/a	n/a	1
86.291	0.651186121	SCRAPBOOK	lure	n/a	n/a	n/a	1
86.942	0.398805615	RATIONALE	lure	n/a	n/a	n/a	1
87.341	0.499992159	CARDIGAN	lure	n/a	n/a	n/a	1
87.841	0.516655272	CROUTON	lure	n/a	n/a	n/a	1
88.357	0.516657987	PORTRAYAL	lure	n/a	n/a	n/a	1
88.874	0.3499971	GEM	lure	n/a	n/a	n/a	1
89.224	0.58332908	PUSHCART	lure	n/a	n/a	n/a	1
89.807	0.649991236	INDULGENCE	lure	n/a	n/a	n/a	1
90.457	0.533319508	KIND	lure	n/a	n/a	n/a	1
90.991	0.716662584	GLYCERINE	lure	n/a	n/a	n/a	1
91.707	2.066634818	TAPE	long	n/a	n/a	n/a	1
93.774	0.716657708	TRAILER	lure	n/a	n/a	n/a	1
94.491	0.583901403	SCALPEL	lure	n/a	n/a	n/a	1
95.075	0.702569065	FORESIGHT	lure	n/a	n/a	n/a	1
95.777	0.330560551	CLEFT	lure	n/a	n/a	n/a	1
96.108	0.582940751	DOGWOOD	lure	n/a	n/a	n/a	1
96.691	0.54998521	DAFFODIL	lure	n/a	n/a	n/a	1
97.241	0.733372674	APPEARANCE	lure	n/a	n/a	n/a	1
97.974	0.416617065	GEYSER	lure	n/a	n/a	n/a	1
98.391	0.466696473	NIGHTMARE	lure	n/a	n/a	n/a	1
98.857	0.566620238	STICKER	lure	n/a	n/a	n/a	1
99.424	0.567673028	WORKMEN	lure	n/a	n/a	n/a	1
99.992	0.615645575	DUST	short	n/a	n/a	n/a	1
100.607	0.699991247	MAST	lure	n/a	n/a	n/a	1
101.307	0.700027079	ADVERSARY	lure	n/a	n/a	n/a	1
102.007	0.583281253	LEGALITY	lure	n/a	n/a	n/a	1
102.591	0.39999735	WINDSHIELD	lure	n/a	n/a	n/a	1
102.991	0.483377427	NAUGHT	lure	n/a	n/a	n/a	1
103.474	0.349947498	LOOKER	lure	n/a	n/a	n/a	1
103.824	0.416659607	WASHCLOTH	lure	n/a	n/a	n/a	1
104.241	0.516658645	PILLOW	lure	n/a	n/a	n/a	1
104.757	0.533327675	ADVOCACY	lure	n/a	n/a	n/a	1
105.291	0.466697133	CLOSET	lure	n/a	n/a	n/a	1
105.757	0.69995245	GOULASH	lure	n/a	n/a	n/a	1
106.457	0.754244479	AIRSHIP	lure	n/a	n/a	n/a	1
107.211	0.495734901	KICKOFF	lure	n/a	n/a	n/a	1
107.707	0.499997362	ROSEWATER	lure	n/a	n/a	n/a	1
108.207	0.616654996	PIANO	short	n/a	n/a	n/a	1
108.824	0.683325982	PREVALENCE	lure	n/a	n/a	n/a	1
109.507	0.616655392	PARAMETER	lure	n/a	n/a	n/a	1
110.124	0.449994699	LAW	lure	n/a	n/a	n/a	1
110.574	0.616659838	YOUNGSTER	lure	n/a	n/a	n/a	1
111.19	0.533325033	THROWER	lure	n/a	n/a	n/a	1
111.724	0.399995483	FINALE	lure	n/a	n/a	n/a	1
112.124	0.733323078	PIETY	lure	n/a	n/a	n/a	1
112.857	0.416658007	ANIMALISM	lure	n/a	n/a	n/a	1
113.274	0.333331468	SAILCLOTH	lure	n/a	n/a	n/a	1
113.607	0.383328186	IMMORALITY	lure	n/a	n/a	n/a	1
113.99	0.699989965	RAMBLER	lure	n/a	n/a	n/a	1
114.69	0.433326952	RETIREMENT	lure	n/a	n/a	n/a	1
115.124	0.483324881	TOOTHPASTE	lure	n/a	n/a	n/a	1
115.607	0.649993803	SALAD	lure	n/a	n/a	n/a	1
116.257	0.616658239	CLOAK	short	n/a	n/a	n/a	1
116.874	0.53332573	ESTIMATE	lure	n/a	n/a	n/a	1
117.407	0.333321956	WHOOPING	lure	n/a	n/a	n/a	1
117.74	0.633326081	ZOO	lure	n/a	n/a	n/a	1
118.374	0.599995607	REPLICA	lure	n/a	n/a	n/a	1
118.974	0.499991981	PROJECTOR	lure	n/a	n/a	n/a	1
119.474	0.76665597	GIBBERISH	lure	n/a	n/a	n/a	1
120.24	0.33332806	PRINTOUT	lure	n/a	n/a	n/a	1
120.574	0.449992318	STRENGTH	lure	n/a	n/a	n/a	1
121.024	0.733319536	PANEL	lure	n/a	n/a	n/a	1
121.757	0.566663598	FLATTOP	lure	n/a	n/a	n/a	1
122.324	0.333328762	MANDIBLE	lure	n/a	n/a	n/a	1
122.657	0.416656927	DARTBOARD	lure	n/a	n/a	n/a	1
123.074	0.466659546	WORKTABLE	lure	n/a	n/a	n/a	1
123.54	0.316668008	GENTLEMEN	lure	n/a	n/a	n/a	1
123.857	0.433327329	LIBERATOR	lure	n/a	n/a	n/a	1
124.29	2.016633658	ORNAMENT	long	n/a	n/a	n/a	1
126.307	0.383327022	SIXPENCE	lure	n/a	n/a	n/a	1
126.69	0.76665901	YOGURT	lure	n/a	n/a	n/a	1
127.457	0.516701878	BOOKLET	lure	n/a	n/a	n/a	1
127.974	0.599948285	PEDICURE	lure	n/a	n/a	n/a	1
128.574	0.449997105	DRAGON	lure	n/a	n/a	n/a	1
129.024	0.666702537	PLAYSUIT	lure	n/a	n/a	n/a	1
129.69	0.499947717	GALLUP	lure	n/a	n/a	n/a	1
130.19	0.466659255	EPIPHANY	lure	n/a	n/a	n/a	1
130.657	0.69998852	ANOMALY	lure	n/a	n/a	n/a	1
131.357	0.683322844	BYSTANDER	lure	n/a	n/a	n/a	1
132.04	0.416658908	INSTANCE	lure	n/a	n/a	n/a	1
132.457	2.06664119	DITCH	long	n/a	n/a	n/a	1
134.523	0.4333271	DUET	lure	n/a	n/a	n/a	1
134.957	0.333330293	MAYPOLE	lure	n/a	n/a	n/a	1
135.29	0.383372709	NUMERAL	lure	n/a	n/a	n/a	1
135.673	0.333282706	DEFECTOR	lure	n/a	n/a	n/a	1
136.007	0.616658733	ADMIRATION	lure	n/a	n/a	n/a	1
136.623	0.333373524	SLAB	lure	n/a	n/a	n/a	1
136.957	0.699986091	TOUCHDOWN	lure	n/a	n/a	n/a	1
137.657	0.466615356	PAYCHECK	lure	n/a	n/a	n/a	1
138.123	0.316661271	EARL	lure	n/a	n/a	n/a	1
138.44	0.749993665	DOMINATION	lure	n/a	n/a	n/a	1
139.19	0.516707173	CAR	lure	n/a	n/a	n/a	1
139.707	0.749986945	RELATION	lure	n/a	n/a	n/a	1
140.457	0.716608819	SCRUPLE	lure	n/a	n/a	n/a	1
141.173	1.016653087	PEACH	fruit	738	2	2	1
142.19	0.366661552	EDITORSHIP	lure	n/a	n/a	n/a	1
142.557	0.383376886	APPLICANT	lure	n/a	n/a	n/a	1
142.94	0.566613343	SUNFISH	lure	n/a	n/a	n/a	1
143.507	0.483320379	FENDER	lure	n/a	n/a	n/a	1
143.99	0.500047495	NOTEBOOK	lure	n/a	n/a	n/a	1
144.49	0.733334894	SHORTCUT	lure	n/a	n/a	n/a	1
145.223	0.383267966	FRATERNITY	lure	n/a	n/a	n/a	1
145.607	0.399988094	LANDLADY	lure	n/a	n/a	n/a	1
146.007	0.366666917	REED	lure	n/a	n/a	n/a	1
146.373	0.366662102	MAINSPRING	lure	n/a	n/a	n/a	1
146.74	0.399992284	VOCALISM	lure	n/a	n/a	n/a	1
147.14	0.733319274	SMOOTHIE	lure	n/a	n/a	n/a	1
147.873	0.549992015	BUNKHOUSE	lure	n/a	n/a	n/a	1
148.423	0.533331396	SOMEBODY	lure	n/a	n/a	n/a	1
148.957	0.599986246	ZEST	lure	n/a	n/a	n/a	1
149.557	0.666660876	BOTTLE	short	n/a	n/a	n/a	1
150.223	0.566656784	LULLABY	lure	n/a	n/a	n/a	1
150.79	0.566663223	GLOOM	lure	n/a	n/a	n/a	1
151.357	0.366654862	POTENCY	lure	n/a	n/a	n/a	1
151.723	0.649995714	CAVITY	lure	n/a	n/a	n/a	1
152.373	0.433328953	EXECUTOR	lure	n/a	n/a	n/a	1
152.807	0.716650309	HEADREST	lure	n/a	n/a	n/a	1
153.523	0.549998712	PLASTICITY	lure	n/a	n/a	n/a	1
154.073	0.566654085	INDUSTRY	lure	n/a	n/a	n/a	1
154.64	0.516658828	GRANDPA	lure	n/a	n/a	n/a	1
155.157	0.483330408	MOTORWAY	lure	n/a	n/a	n/a	1
155.64	0.366658795	LIVELIHOOD	lure	n/a	n/a	n/a	1
156.006	0.516658197	ROYALTY	lure	n/a	n/a	n/a	1
156.523	0.716660914	BATCH	lure	n/a	n/a	n/a	1
157.24	0.499990408	HITTER	lure	n/a	n/a	n/a	1
157.74	0.633324396	INSPECTOR	lure	n/a	n/a	n/a	1
158.373	0.616658324	TIRE	short	n/a	n/a	n/a	1
158.99	0.583322116	SPA	lure	n/a	n/a	n/a	1
159.573	0.616914707	INHABITANT	lure	n/a	n/a	n/a	1
160.19	0.399743983	REEF	lure	n/a	n/a	n/a	1
160.59	0.716654255	THINKER	lure	n/a	n/a	n/a	1
161.306	0.349992881	DINGO	lure	n/a	n/a	n/a	1
161.656	0.316663886	RADIOGRAPH	lure	n/a	n/a	n/a	1
161.973	0.683322505	NOBILITY	lure	n/a	n/a	n/a	1
162.656	0.566660792	THUG	lure	n/a	n/a	n/a	1
163.223	0.549994542	UBIQUITY	lure	n/a	n/a	n/a	1
163.773	0.316657383	LAMB	lure	n/a	n/a	n/a	1
164.09	0.46666065	GODCHILD	lure	n/a	n/a	n/a	1
164.556	0.333328286	GODFATHER	lure	n/a	n/a	n/a	1
164.89	0.316665468	LAMBSKIN	lure	n/a	n/a	n/a	1
165.206	0.683322854	MAZE	lure	n/a	n/a	n/a	1
165.89	0.566661508	SCAPEGOAT	lure	n/a	n/a	n/a	1
166.456	2.016635291	NOVEL	long	n/a	n/a	n/a	1
168.473	0.683322866	LOCATION	lure	n/a	n/a	n/a	1
169.156	0.38372813	SHOWMAN	lure	n/a	n/a	n/a	1
169.54	0.449590595	FLAGELLA	lure	n/a	n/a	n/a	1
169.99	0.733326834	INDIGENCE	lure	n/a	n/a	n/a	1
170.723	0.449993041	TRINKET	lure	n/a	n/a	n/a	1
171.173	0.416658166	GALLANTRY	lure	n/a	n/a	n/a	1
171.59	0.69999477	EMPIRICIST	lure	n/a	n/a	n/a	1
172.29	0.699988543	HOMESTEAD	lure	n/a	n/a	n/a	1
172.99	0.399995124	EAGLE	lure	n/a	n/a	n/a	1
173.39	0.449992125	BISHOP	lure	n/a	n/a	n/a	1
173.84	0.749987161	SHORTFALL	lure	n/a	n/a	n/a	1
174.59	0.516662775	PRECEDENCE	lure	n/a	n/a	n/a	1
175.106	0.61665723	RULER	short	n/a	n/a	n/a	1
175.723	0.666660756	COOLANT	lure	n/a	n/a	n/a	1
176.39	0.633375723	BONFIRE	lure	n/a	n/a	n/a	1
177.023	0.349940451	COSTUME	lure	n/a	n/a	n/a	1
177.373	0.399995562	FRESHMEN	lure	n/a	n/a	n/a	1
177.773	0.666656659	PENDANT	lure	n/a	n/a	n/a	1
178.44	0.666709416	OVERSPILL	lure	n/a	n/a	n/a	1
179.106	0.318394219	OPIUM	lure	n/a	n/a	n/a	1
179.425	0.383561415	NEUTRALITY	lure	n/a	n/a	n/a	1
179.808	0.698569101	JOURNALISM	lure	n/a	n/a	n/a	1
180.507	0.666113418	PULLOVER	lure	n/a	n/a	n/a	1
181.173	0.749988886	ARMORY	lure	n/a	n/a	n/a	1
181.923	0.533275976	CRYBABY	lure	n/a	n/a	n/a	1
182.456	0.366698719	SUBSCRIBER	lure	n/a	n/a	n/a	1
182.823	1.016660678	PEAR	fruit	720	2	2	1
183.839	0.633277981	LONGHORN	lure	n/a	n/a	n/a	1
184.473	0.683460439	GALLERY	lure	n/a	n/a	n/a	1
185.156	0.318560481	ORIOLE	lure	n/a	n/a	n/a	1
185.475	0.464625372	SALON	lure	n/a	n/a	n/a	1
185.939	0.43337382	GIVER	lure	n/a	n/a	n/a	1
186.373	0.416662021	STATEROOM	lure	n/a	n/a	n/a	1
186.789	0.633272289	BUN	lure	n/a	n/a	n/a	1
187.423	0.366667525	EMPATHY	lure	n/a	n/a	n/a	1
187.789	0.316707858	RIFLEMAN	lure	n/a	n/a	n/a	1
188.106	0.516656399	FEEDBAG	lure	n/a	n/a	n/a	1
188.623	0.749943024	ASTROLOGY	lure	n/a	n/a	n/a	1
189.373	0.316700313	FREEDOM	lure	n/a	n/a	n/a	1
189.689	0.699994151	SCENE	lure	n/a	n/a	n/a	1
190.389	0.566616222	EXPANSION	lure	n/a	n/a	n/a	1
190.956	2.016642821	BARREL	long	n/a	n/a	n/a	1
192.973	0.733322234	CULTURE	lure	n/a	n/a	n/a	1
193.706	0.399992234	NOMINATION	lure	n/a	n/a	n/a	1
194.106	0.666659519	YEAST	lure	n/a	n/a	n/a	1
194.773	0.716656713	SUPREME	lure	n/a	n/a	n/a	1
195.489	0.666656163	UTTERANCE	lure	n/a	n/a	n/a	1
196.156	0.716655856	MISTLETOE	lure	n/a	n/a	n/a	1
196.873	0.583324753	BARITONE	lure	n/a	n/a	n/a	1
197.456	0.466660995	ARK	lure	n/a	n/a	n/a	1
197.923	0.483323689	INN	lure	n/a	n/a	n/a	1
198.406	0.568024485	AVOCATION	lure	n/a	n/a	n/a	1
198.974	2.015616488	CART	long	n/a	n/a	n/a	1
200.99	0.466319193	THIRST	lure	n/a	n/a	n/a	1
201.456	0.499993938	PARKHOUSE	lure	n/a	n/a	n/a	1
201.956	0.38332619	TECH	lure	n/a	n/a	n/a	1
202.339	0.416659263	JOGGER	lure	n/a	n/a	n/a	1
202.756	0.416661848	SYMPTOM	lure	n/a	n/a	n/a	1
203.173	0.716658052	AMPUTATION	lure	n/a	n/a	n/a	1
203.889	0.46665937	IMMOBILITY	lure	n/a	n/a	n/a	1
204.356	0.44999402	COMMODITY	lure	n/a	n/a	n/a	1
204.806	0.683321596	BREAKDOWN	lure	n/a	n/a	n/a	1
205.489	0.433365845	HERMITAGE	lure	n/a	n/a	n/a	1
205.923	0.416625444	MINUTEMAN	lure	n/a	n/a	n/a	1
206.339	0.533326604	CLAVICLE	lure	n/a	n/a	n/a	1
206.872	0.399992956	CLAN	lure	n/a	n/a	n/a	1
207.272	0.61665557	FERRY	short	n/a	n/a	n/a	1
207.889	0.4333279	ALCHEMY	lure	n/a	n/a	n/a	1
208.322	0.66666006	SUPPRESSOR	lure	n/a	n/a	n/a	1
208.989	0.383326704	TREATMENT	lure	n/a	n/a	n/a	1
209.372	0.749988573	CONFLUENCE	lure	n/a	n/a	n/a	1
210.122	0.533374844	FORESTER	lure	n/a	n/a	n/a	1
210.656	0.433278266	SCREENPLAY	lure	n/a	n/a	n/a	1
211.089	0.599998329	THEME	lure	n/a	n/a	n/a	1
211.689	0.366656067	CORNFLOWER	lure	n/a	n/a	n/a	1
212.056	0.599986175	INCLUSION	lure	n/a	n/a	n/a	1
212.656	0.349999959	SEABED	lure	n/a	n/a	n/a	1
213.006	0.416661775	CARPENTER	lure	n/a	n/a	n/a	1
213.422	0.367089996	WAND	lure	n/a	n/a	n/a	1
213.789	0.399566568	PASTEBOARD	lure	n/a	n/a	n/a	1
214.189	0.400041209	DELEGATION	lure	n/a	n/a	n/a	1
214.589	0.633276663	HANDLEBAR	lure	n/a	n/a	n/a	1
215.222	2.016639673	PARCEL	long	n/a	n/a	n/a	1
217.239	0.600024883	CEREAL	lure	n/a	n/a	n/a	1
217.839	0.716621035	UNCLE	lure	n/a	n/a	n/a	1
218.556	0.66665816	FIREMEN	lure	n/a	n/a	n/a	1
219.222	0.333325505	CASEWORK	lure	n/a	n/a	n/a	1
219.556	0.466660776	OAK	lure	n/a	n/a	n/a	1
220.022	0.316662551	HEADWAY	lure	n/a	n/a	n/a	1
220.339	0.433327264	POLYTHEISM	lure	n/a	n/a	n/a	1
220.772	0.566655959	VAPOR	lure	n/a	n/a	n/a	1
221.339	0.333335915	MAYONNAISE	lure	n/a	n/a	n/a	1
221.672	0.666656769	DOCTRINE	lure	n/a	n/a	n/a	1
222.339	0.73332432	REBUTTAL	lure	n/a	n/a	n/a	1
223.072	0.466799217	REDEMPTION	lure	n/a	n/a	n/a	1
223.539	0.649851855	LIFEGUARD	lure	n/a	n/a	n/a	1
224.189	0.666648864	OPTIMALITY	lure	n/a	n/a	n/a	1
224.856	0.649994019	WASP	lure	n/a	n/a	n/a	1
225.506	0.566705468	MANATEE	lure	n/a	n/a	n/a	1
226.072	0.733327447	HIPSTER	lure	n/a	n/a	n/a	1
226.806	n/a	LATITUDE	lure	n/a	n/a	n/a	1
238.005	0.599991358	TAPESTRY	lure	n/a	n/a	n/a	1
238.605	0.383331153	SANCTIMONY	lure	n/a	n/a	n/a	1
238.989	0.483383636	ARISTOCRAT	lure	n/a	n/a	n/a	1
239.472	0.499935921	THEW	lure	n/a	n/a	n/a	1
239.972	0.69999235	SALESWOMAN	lure	n/a	n/a	n/a	1
240.672	0.399993791	FERRYMAN	lure	n/a	n/a	n/a	1
241.072	0.566656821	HAILSTORM	lure	n/a	n/a	n/a	1
241.639	0.366659536	LIMBO	lure	n/a	n/a	n/a	1
242.005	2.016640771	CABLE	long	n/a	n/a	n/a	1
244.022	0.71665418	BOY	lure	n/a	n/a	n/a	1
244.739	0.533323058	OTTER	lure	n/a	n/a	n/a	1
245.272	0.366666768	BAZOOKA	lure	n/a	n/a	n/a	1
245.639	0.633321367	SWEATSHIRT	lure	n/a	n/a	n/a	1
246.272	0.71666042	TURTLEDOVE	lure	n/a	n/a	n/a	1
246.989	0.599992588	CASTE	lure	n/a	n/a	n/a	1
247.589	0.633317478	REPUTATION	lure	n/a	n/a	n/a	1
248.222	0.649997771	TIMIDITY	lure	n/a	n/a	n/a	1
248.872	0.549984955	DANCER	lure	n/a	n/a	n/a	1
249.422	0.766654825	JOIST	lure	n/a	n/a	n/a	1
250.189	0.583329142	TRAVELER	lure	n/a	n/a	n/a	1
250.772	1.016652636	MELON	fruit	643	2	2	1
251.788	0.716661192	ARCHERY	lure	n/a	n/a	n/a	1
252.505	0.449987753	MANNEQUIN	lure	n/a	n/a	n/a	1
252.955	0.64999423	MARGIN	lure	n/a	n/a	n/a	1
253.605	0.350548275	SOFA	lure	n/a	n/a	n/a	1
253.956	0.582772409	APPENDAGE	lure	n/a	n/a	n/a	1
254.538	0.399991135	IMBALANCE	lure	n/a	n/a	n/a	1
254.938	0.333332326	DISORDER	lure	n/a	n/a	n/a	1
255.272	0.749986612	OBSTACLE	lure	n/a	n/a	n/a	1
256.022	0.399996437	CONTINUITY	lure	n/a	n/a	n/a	1
256.422	0.600259267	MYSTERY	lure	n/a	n/a	n/a	1
257.022	0.499726666	MADWOMAN	lure	n/a	n/a	n/a	1
257.522	0.31665914	CALAMITY	lure	n/a	n/a	n/a	1
257.838	0.733324553	PACESETTER	lure	n/a	n/a	n/a	1
258.572	0.71665554	WINDOWPANE	lure	n/a	n/a	n/a	1
259.288	2.016642383	TAPE	long	n/a	n/a	n/a	1
261.305	0.383324528	STEPSISTER	lure	n/a	n/a	n/a	1
261.688	0.333328345	CHANCELLOR	lure	n/a	n/a	n/a	1
262.022	0.633318655	HOMICIDE	lure	n/a	n/a	n/a	1
262.655	0.499996553	MANNER	lure	n/a	n/a	n/a	1
263.155	0.633327552	MERCHANT	lure	n/a	n/a	n/a	1
263.788	0.49999364	DIRECTION	lure	n/a	n/a	n/a	1
264.288	0.483371263	PACIFIST	lure	n/a	n/a	n/a	1
264.772	0.416615752	PUBLICIST	lure	n/a	n/a	n/a	1
265.188	0.749983164	SLUGGER	lure	n/a	n/a	n/a	1
265.938	0.666665543	INDOLENCE	lure	n/a	n/a	n/a	1
266.605	0.36666027	FOOTSIE	lure	n/a	n/a	n/a	1
266.972	0.351441375	GHOST	lure	n/a	n/a	n/a	1
267.323	0.615207235	CLOAK	short	n/a	n/a	n/a	1
267.938	0.600055177	FAIRGROUND	lure	n/a	n/a	n/a	1
268.538	0.366600746	RESTRAINT	lure	n/a	n/a	n/a	1
268.905	0.433386612	SEMINAR	lure	n/a	n/a	n/a	1
269.338	0.749988048	SAUCER	lure	n/a	n/a	n/a	1
270.088	0.499935811	PERMISSION	lure	n/a	n/a	n/a	1
270.588	0.599990254	PRESSMAN	lure	n/a	n/a	n/a	1
271.188	0.766657537	RETELLING	lure	n/a	n/a	n/a	1
271.955	0.400048091	MINELAYER	lure	n/a	n/a	n/a	1
272.355	0.516602592	BOURBON	lure	n/a	n/a	n/a	1
272.872	0.366665619	PULLEY	lure	n/a	n/a	n/a	1
273.238	0.483321224	ROWER	lure	n/a	n/a	n/a	1
273.722	0.700050849	BOXWOOD	lure	n/a	n/a	n/a	1
274.422	0.449935633	PROTEIN	lure	n/a	n/a	n/a	1
274.871	0.550048194	FRACTURE	lure	n/a	n/a	n/a	1
275.422	0.683269288	OFFENSE	lure	n/a	n/a	n/a	1
276.105	2.01664022	PARCEL	long	n/a	n/a	n/a	1
278.121	0.633378099	FOOLERY	lure	n/a	n/a	n/a	1
278.755	0.583330084	PROPOSAL	lure	n/a	n/a	n/a	1
279.338	0.683306047	DELETION	lure	n/a	n/a	n/a	1
280.021	0.583282002	HUNTER	lure	n/a	n/a	n/a	1
280.605	0.733322184	RACCOON	lure	n/a	n/a	n/a	1
281.338	0.599992488	BEATER	lure	n/a	n/a	n/a	1
281.938	0.533326394	EGGBEATER	lure	n/a	n/a	n/a	1
282.471	0.683322513	FLUENCY	lure	n/a	n/a	n/a	1
283.155	0.599993796	GAG	lure	n/a	n/a	n/a	1
283.755	0.383324902	BOTANY	lure	n/a	n/a	n/a	1
284.138	0.621063352	TIRE	short	n/a	n/a	n/a	1
284.759	0.545589152	SUPERSTAR	lure	n/a	n/a	n/a	1
285.305	0.683324824	EFFICACY	lure	n/a	n/a	n/a	1
285.988	0.366702438	PUDDLE	lure	n/a	n/a	n/a	1
286.355	0.716612094	INCENTIVE	lure	n/a	n/a	n/a	1
287.071	0.683368812	MATRIMONY	lure	n/a	n/a	n/a	1
287.755	0.516615592	OVERFLOW	lure	n/a	n/a	n/a	1
288.271	0.516706913	BARLEY	lure	n/a	n/a	n/a	1
288.788	0.733322237	STINGRAY	lure	n/a	n/a	n/a	1
289.521	0.599946104	TRIVIALITY	lure	n/a	n/a	n/a	1
290.121	0.333329717	FLAMINGO	lure	n/a	n/a	n/a	1
290.455	0.449993052	EAR	lure	n/a	n/a	n/a	1
290.905	0.316722542	BARROW	lure	n/a	n/a	n/a	1
291.221	0.599929407	CONTINENCE	lure	n/a	n/a	n/a	1
291.821	0.399994535	PRIORITY	lure	n/a	n/a	n/a	1
292.221	1.01665201	RASPBERRY	fruit	n/a	n/a	2	0
293.238	0.43332639	SYNDROME	lure	n/a	n/a	n/a	1
293.671	0.350054276	FORUM	lure	n/a	n/a	n/a	1
294.021	0.399938189	LITERATURE	lure	n/a	n/a	n/a	1
294.421	0.616656196	BRUTALITY	lure	n/a	n/a	n/a	1
295.038	0.533325733	CLASSICISM	lure	n/a	n/a	n/a	1
295.571	0.383383979	ABSURDITY	lure	n/a	n/a	n/a	1
295.955	0.349938449	VANGUARD	lure	n/a	n/a	n/a	1
296.305	0.316710591	BICYCLIST	lure	n/a	n/a	n/a	1
296.621	0.533336346	BEARSKIN	lure	n/a	n/a	n/a	1
297.155	0.733266488	TUMBLER	lure	n/a	n/a	n/a	1
297.888	0.43337988	PROPANE	lure	n/a	n/a	n/a	1
298.321	0.583265603	NOON	lure	n/a	n/a	n/a	1
298.904	0.333333714	PENINSULA	lure	n/a	n/a	n/a	1
299.238	0.500049437	RESHUFFLE	lure	n/a	n/a	n/a	1
299.738	0.4666052	FLOWERPOT	lure	n/a	n/a	n/a	1
300.204	2.016637707	RAINBOW	long	n/a	n/a	n/a	1
302.221	0.449992669	CLERGY	lure	n/a	n/a	n/a	1
302.671	0.383384693	ELECTION	lure	n/a	n/a	n/a	1
303.054	0.516603081	PERIWINKLE	lure	n/a	n/a	n/a	1
303.571	0.483321579	HORN	lure	n/a	n/a	n/a	1
304.054	0.750042721	FLEA	lure	n/a	n/a	n/a	1
304.804	0.699988408	RUMINATION	lure	n/a	n/a	n/a	1
305.504	0.653877161	CARPENTRY	lure	n/a	n/a	n/a	1
306.158	0.362730911	RESPONDENT	lure	n/a	n/a	n/a	1
306.521	0.483324095	REVEREND	lure	n/a	n/a	n/a	1
307.004	0.366664132	VENUE	lure	n/a	n/a	n/a	1
307.371	0.450048328	XYLOPHONE	lure	n/a	n/a	n/a	1
307.821	0.649934522	HONEY	lure	n/a	n/a	n/a	1
308.471	0.51671596	TEMPLE	lure	n/a	n/a	n/a	1
308.988	0.616605771	RULER	short	n/a	n/a	n/a	1
309.604	0.383323638	CHEMIST	lure	n/a	n/a	n/a	1
309.988	0.516719512	MISMATCH	lure	n/a	n/a	n/a	1
310.504	0.416644033	SCHISM	lure	n/a	n/a	n/a	1
310.921	0.633275656	IMPEDIMENT	lure	n/a	n/a	n/a	1
311.554	0.616663318	MAGNATE	lure	n/a	n/a	n/a	1
312.171	0.649986563	BONBON	lure	n/a	n/a	n/a	1
312.821	0.433332167	JANITOR	lure	n/a	n/a	n/a	1
313.254	0.566659433	AVOIDANCE	lure	n/a	n/a	n/a	1
313.821	0.583323777	BENEFACTOR	lure	n/a	n/a	n/a	1
314.404	0.383379598	QUARTET	lure	n/a	n/a	n/a	1
314.788	0.433337907	INSTIGATOR	lure	n/a	n/a	n/a	1
315.221	0.76659696	SPRITE	lure	n/a	n/a	n/a	1
315.988	0.433369271	INCREMENT	lure	n/a	n/a	n/a	1
316.421	0.449949158	MISSTEP	lure	n/a	n/a	n/a	1
316.871	0.466705736	MEMBRANE	lure	n/a	n/a	n/a	1
317.338	1.016662283	ORANGE	fruit	733	2	2	1
318.354	0.566960344	PROJECT	lure	n/a	n/a	n/a	1
318.921	0.533012516	SONOGRAM	lure	n/a	n/a	n/a	1
319.454	0.616614991	ADDRESSEE	lure	n/a	n/a	n/a	1
320.071	0.699989701	CASHMERE	lure	n/a	n/a	n/a	1
320.771	0.433325684	SIMILE	lure	n/a	n/a	n/a	1
321.204	0.717389279	RAGTAG	lure	n/a	n/a	n/a	1
321.922	0.615926483	HUNK	lure	n/a	n/a	n/a	1
322.537	0.550039537	EROSION	lure	n/a	n/a	n/a	1
323.088	0.616610286	PATERNITY	lure	n/a	n/a	n/a	1
323.704	0.633323941	STALAGMITE	lure	n/a	n/a	n/a	1
324.337	0.716656964	SAXOPHONE	lure	n/a	n/a	n/a	1
325.054	0.69999152	FLOODLIGHT	lure	n/a	n/a	n/a	1
325.754	2.049970693	DITCH	long	n/a	n/a	n/a	1
327.804	0.666712724	CONTESTANT	lure	n/a	n/a	n/a	1
328.471	0.516603122	TOGA	lure	n/a	n/a	n/a	1
328.987	0.666701461	MAILMAN	lure	n/a	n/a	n/a	1
329.654	0.666613942	ADDITION	lure	n/a	n/a	n/a	1
330.321	0.483325097	FIn/aCIER	lure	n/a	n/a	n/a	1
330.804	0.566659413	STOOGE	lure	n/a	n/a	n/a	1
331.371	0.383325622	WATERFALL	lure	n/a	n/a	n/a	1
331.754	0.733326273	FARMSTEAD	lure	n/a	n/a	n/a	1
332.487	0.466657103	MAMMA	lure	n/a	n/a	n/a	1
332.954	0.516660205	MINUTE	lure	n/a	n/a	n/a	1
333.471	0.599993831	IDENTITY	lure	n/a	n/a	n/a	1
334.071	0.616658849	FERRY	short	n/a	n/a	n/a	1
334.687	0.749990228	BEECH	lure	n/a	n/a	n/a	1
335.437	0.333384063	FABRIC	lure	n/a	n/a	n/a	1
335.771	0.633313948	HAMSTER	lure	n/a	n/a	n/a	1
336.404	0.416615279	SAKE	lure	n/a	n/a	n/a	1
336.821	0.33332694	FADEOUT	lure	n/a	n/a	n/a	1
337.154	0.716716617	HANDCART	lure	n/a	n/a	n/a	1
337.871	0.617165147	SEACOAST	lure	n/a	n/a	n/a	1
338.488	0.699422215	QUARTZ	lure	n/a	n/a	n/a	1
339.187	0.383389179	DEALER	lure	n/a	n/a	n/a	1
339.571	0.699929418	RUNWAY	lure	n/a	n/a	n/a	1
340.271	0.666719097	CONTAINER	lure	n/a	n/a	n/a	1
340.937	0.549930582	KILO	lure	n/a	n/a	n/a	1
341.487	0.616703595	GUn/aUNNER	lure	n/a	n/a	n/a	1
342.104	0.699988468	MAYOR	lure	n/a	n/a	n/a	1
342.804	0.61661558	BOTTLE	short	n/a	n/a	n/a	1
343.421	0.449993646	SKELETON	lure	n/a	n/a	n/a	1
343.871	0.383326586	INCUBATION	lure	n/a	n/a	n/a	1
344.254	0.399993765	RIDGE	lure	n/a	n/a	n/a	1
344.654	0.366662603	DETACHMENT	lure	n/a	n/a	n/a	1
345.021	0.549987492	PERIL	lure	n/a	n/a	n/a	1
345.571	0.766661449	EXORCISM	lure	n/a	n/a	n/a	1
346.337	0.649990752	EEL	lure	n/a	n/a	n/a	1
346.987	0.466706781	SOLSTICE	lure	n/a	n/a	n/a	1
347.454	0.699987423	FACET	lure	n/a	n/a	n/a	1
348.154	0.68333721	TSUNAMI	lure	n/a	n/a	n/a	1
348.837	0.616660372	CONGRUITY	lure	n/a	n/a	n/a	1
349.454	0.59998949	PLIGHT	lure	n/a	n/a	n/a	1
350.054	0.617351072	NOTEPAPER	lure	n/a	n/a	n/a	1
350.671	0.399303201	SUCROSE	lure	n/a	n/a	n/a	1
351.07	1.016592416	CRANBERRY	fruit	632	2	2	1
352.087	0.399989029	CROSSFIRE	lure	n/a	n/a	n/a	1
352.487	0.616665306	AGILITY	lure	n/a	n/a	n/a	1
353.104	0.466655388	EGOTISM	lure	n/a	n/a	n/a	1
353.57	0.68332615	VALUATION	lure	n/a	n/a	n/a	1
354.254	0.366660927	CENTURION	lure	n/a	n/a	n/a	1
354.62	0.650036935	HOSIERY	lure	n/a	n/a	n/a	1
355.27	0.666611183	AFFINITY	lure	n/a	n/a	n/a	1
355.937	0.56665713	FLEET	lure	n/a	n/a	n/a	1
356.504	0.583328132	JAWBONE	lure	n/a	n/a	n/a	1
357.087	0.333322562	DEFICIENCY	lure	n/a	n/a	n/a	1
357.42	0.649993734	DAYDREAM	lure	n/a	n/a	n/a	1
358.07	0.549994123	VACANCY	lure	n/a	n/a	n/a	1
358.62	0.366657069	TROPHY	lure	n/a	n/a	n/a	1
358.987	2.016646047	BARREL	long	n/a	n/a	n/a	1
361.004	0.633322863	EVENT	lure	n/a	n/a	n/a	1
361.637	0.483325029	AUTOMATION	lure	n/a	n/a	n/a	1
362.12	0.583323552	MEMBER	lure	n/a	n/a	n/a	1
362.704	0.533327985	KINGPIN	lure	n/a	n/a	n/a	1
363.237	0.349989995	OPTIMISM	lure	n/a	n/a	n/a	1
363.587	0.333334701	DIPLOMAT	lure	n/a	n/a	n/a	1
363.92	0.666656962	PARSLEY	lure	n/a	n/a	n/a	1
364.587	0.700049679	MALT	lure	n/a	n/a	n/a	1
365.287	0.533266925	SABLE	lure	n/a	n/a	n/a	1
365.82	0.516657234	CLOSEOUT	lure	n/a	n/a	n/a	1
366.337	0.666716509	IMPORT	lure	n/a	n/a	n/a	1
367.004	0.699931051	CHEEK	lure	n/a	n/a	n/a	1
367.704	0.616658177	PIANO	short	n/a	n/a	n/a	1
368.32	0.700043944	GUn/aOOM	lure	n/a	n/a	n/a	1
369.02	0.383334733	VIOLATION	lure	n/a	n/a	n/a	1
369.404	0.466601488	WARREN	lure	n/a	n/a	n/a	1
369.87	0.500048428	WATERLINE	lure	n/a	n/a	n/a	1
370.37	0.483270189	SPACER	lure	n/a	n/a	n/a	1
370.853	0.649989665	SACHET	lure	n/a	n/a	n/a	1
371.503	0.633324918	BREADCRUMB	lure	n/a	n/a	n/a	1
372.137	0.716710595	RAINWATER	lure	n/a	n/a	n/a	1
372.854	0.349939707	KIDNEY	lure	n/a	n/a	n/a	1
373.203	0.600051933	CARGO	lure	n/a	n/a	n/a	1
373.804	0.683264145	FOREWORD	lure	n/a	n/a	n/a	1
374.487	0.616659167	STRUDEL	lure	n/a	n/a	n/a	1
375.103	0.566711413	NUT	lure	n/a	n/a	n/a	1
375.67	0.399940893	AROMA	lure	n/a	n/a	n/a	1
376.07	0.61816935	TEAR	short	n/a	n/a	n/a	1
376.688	0.436562657	BOOKSELLER	lure	n/a	n/a	n/a	1
377.125	0.646568421	JUNKIE	lure	n/a	n/a	n/a	1
377.771	0.648665306	GOALPOST	lure	n/a	n/a	n/a	1
378.42	0.516714214	HARE	lure	n/a	n/a	n/a	1
378.937	0.649993567	MANHOLE	lure	n/a	n/a	n/a	1
379.587	0.583267944	TYPEFACE	lure	n/a	n/a	n/a	1
380.17	0.549993935	EPILEPSY	lure	n/a	n/a	n/a	1
380.72	0.366718794	RAWHIDE	lure	n/a	n/a	n/a	1
381.087	0.552555516	TELECAST	lure	n/a	n/a	n/a	1
381.639	0.347428777	HOSPICE	lure	n/a	n/a	n/a	1
381.987	0.699937462	ROTATION	lure	n/a	n/a	n/a	1
382.687	0.333327123	HARDCOVER	lure	n/a	n/a	n/a	1
383.02	0.316661991	EXCURSION	lure	n/a	n/a	n/a	1
383.337	0.349994628	COPPERHEAD	lure	n/a	n/a	n/a	1
383.687	0.516719515	EVALUATION	lure	n/a	n/a	n/a	1
384.203	0.649987511	MIRROR	short	n/a	n/a	n/a	1
384.853	0.352620519	ZOOLOGY	lure	n/a	n/a	n/a	1
385.206	0.564026371	INFUSION	lure	n/a	n/a	n/a	1
385.77	0.383277612	MEDITATION	lure	n/a	n/a	n/a	1
386.153	0.649992951	FEMUR	lure	n/a	n/a	n/a	1
386.803	0.549991534	CUBBYHOLE	lure	n/a	n/a	n/a	1
387.353	0.499994505	EXTINCTION	lure	n/a	n/a	n/a	1
387.853	0.649989263	FAIRYTALE	lure	n/a	n/a	n/a	1
388.503	0.533381552	POSTMASTER	lure	n/a	n/a	n/a	1
389.037	0.41660384	SUSPECT	lure	n/a	n/a	n/a	1
389.453	0.533326359	BRIMSTONE	lure	n/a	n/a	n/a	1
389.987	0.483327197	THUMBNAIL	lure	n/a	n/a	n/a	1
390.47	0.483326608	GREENHORN	lure	n/a	n/a	n/a	1
390.953	0.566658594	MONOXIDE	lure	n/a	n/a	n/a	1
391.52	0.383384695	TROOPER	lure	n/a	n/a	n/a	1
391.903	0.400002199	ADJECTIVE	lure	n/a	n/a	n/a	1
392.303	1.016641045	PEAR	fruit	696	2	2	1
393.32	0.449941	MORTICIAN	lure	n/a	n/a	n/a	1
393.77	0.666714669	ACCORDANCE	lure	n/a	n/a	n/a	1
394.437	0.699990606	LINEAGE	lure	n/a	n/a	n/a	1
395.137	0.51660157	REVELRY	lure	n/a	n/a	n/a	1
395.653	0.533325409	HUNTSMAN	lure	n/a	n/a	n/a	1
396.186	0.666728408	CONFLICT	lure	n/a	n/a	n/a	1
396.853	0.583254511	CASHIER	lure	n/a	n/a	n/a	1
397.436	0.366730951	DUCKBILL	lure	n/a	n/a	n/a	1
397.803	0.751490407	CELLIST	lure	n/a	n/a	n/a	1
398.555	0.350559784	CYCLIST	lure	n/a	n/a	n/a	1
398.905	0.414623687	INNUENDO	lure	n/a	n/a	n/a	1
399.32	0.566633454	VINEGAR	lure	n/a	n/a	n/a	1
399.886	0.466586616	PEELER	lure	n/a	n/a	n/a	1
400.353	2.050022101	CART	long	n/a	n/a	n/a	1
402.403	0.750605532	WALLET	lure	n/a	n/a	n/a	1
403.154	0.499327019	PLUMBER	lure	n/a	n/a	n/a	1
403.653	0.416661286	PLURALITY	lure	n/a	n/a	n/a	1
404.07	0.399994658	SCRIPT	lure	n/a	n/a	n/a	1
404.47	0.766653682	JASMINE	lure	n/a	n/a	n/a	1
405.236	0.399994011	ATTENDANCE	lure	n/a	n/a	n/a	1
405.636	0.736709746	GRAVEL	lure	n/a	n/a	n/a	1
406.373	0.346611798	MONOLOGIST	lure	n/a	n/a	n/a	1
406.72	0.633323226	GASOLINE	lure	n/a	n/a	n/a	1
407.353	0.433329141	JUROR	lure	n/a	n/a	n/a	1
407.786	0.316659958	TOURISM	lure	n/a	n/a	n/a	1
408.103	0.716651878	HEDONIST	lure	n/a	n/a	n/a	1
408.82	2.016643925	NOVEL	long	n/a	n/a	n/a	1
410.836	0.616656697	DEFERENCE	lure	n/a	n/a	n/a	1
411.453	0.4999923	WHALE	lure	n/a	n/a	n/a	1
411.953	0.499993851	SAVIOR	lure	n/a	n/a	n/a	1
412.453	0.633321013	ROAD	lure	n/a	n/a	n/a	1
413.086	0.683329431	TWILL	lure	n/a	n/a	n/a	1
413.77	0.733315377	TRILOGY	lure	n/a	n/a	n/a	1
414.503	0.749993281	COMPLEXITY	lure	n/a	n/a	n/a	1
415.253	0.66665397	CHARCOAL	lure	n/a	n/a	n/a	1
415.92	0.366663367	SKYLINE	lure	n/a	n/a	n/a	1
416.286	0.466662955	APPAREL	lure	n/a	n/a	n/a	1
416.753	0.53332684	PIECEWORK	lure	n/a	n/a	n/a	1
417.286	2.016639072	FOSSIL	long	n/a	n/a	n/a	1
419.303	0.733323843	RAILHEAD	lure	n/a	n/a	n/a	1
420.036	0.716654876	WEATHERMAN	lure	n/a	n/a	n/a	1
420.753	0.416659339	NIGHTLIFE	lure	n/a	n/a	n/a	1
421.169	0.466655704	NITRATE	lure	n/a	n/a	n/a	1
421.636	0.699993743	CONCEIT	lure	n/a	n/a	n/a	1
422.336	0.48332911	PLAYBACK	lure	n/a	n/a	n/a	1
422.819	0.533323913	FLAX	lure	n/a	n/a	n/a	1
423.353	0.666658037	QUILL	lure	n/a	n/a	n/a	1
424.019	0.499992723	SHIPMENT	lure	n/a	n/a	n/a	1
424.519	0.333323867	INFIELDER	lure	n/a	n/a	n/a	1
424.853	0.549996552	CARD	lure	n/a	n/a	n/a	1
425.403	2.016642017	ORNAMENT	long	n/a	n/a	n/a	1
427.419	0.699988568	AGITATOR	lure	n/a	n/a	n/a	1
428.119	0.449992754	SPIRE	lure	n/a	n/a	n/a	1
428.569	0.383327072	CROQUET	lure	n/a	n/a	n/a	1
428.953	0.316660163	LIGHTBULB	lure	n/a	n/a	n/a	1
429.269	0.533328422	GUNPLAY	lure	n/a	n/a	n/a	1
429.803	0.433327965	PROPONENT	lure	n/a	n/a	n/a	1
430.236	0.337797852	DISTILLERY	lure	n/a	n/a	n/a	1
430.574	0.433418945	ADDITIVE	lure	n/a	n/a	n/a	1
431.007	0.628764091	ANAGRAM	lure	n/a	n/a	n/a	1
431.636	0.36666045	DERIVATION	lure	n/a	n/a	n/a	1
432.003	0.683324426	FOOTAGE	lure	n/a	n/a	n/a	1
432.686	0.51665856	VILLAGER	lure	n/a	n/a	n/a	1
433.203	0.433323639	DOUCHE	lure	n/a	n/a	n/a	1
433.636	1.016765189	PEAR	fruit	819	2	2	1
434.653	0.5375674	SEABOARD	lure	n/a	n/a	n/a	1
435.19	0.528976081	LANDLORD	lure	n/a	n/a	n/a	1
435.719	0.56665808	MICROWAVE	lure	n/a	n/a	n/a	1
436.286	0.53332803	ANYBODY	lure	n/a	n/a	n/a	1
436.819	0.566657243	CHICKPEA	lure	n/a	n/a	n/a	1
437.386	0.449993065	OUTPOURING	lure	n/a	n/a	n/a	1
437.836	0.449995316	POWERBOAT	lure	n/a	n/a	n/a	1
438.286	0.736296242	UNTRUTH	lure	n/a	n/a	n/a	1
439.022	0.497018264	ELF	lure	n/a	n/a	n/a	1
439.519	0.716658214	MONEYMAKER	lure	n/a	n/a	n/a	1
440.236	0.333326672	SAVAGERY	lure	n/a	n/a	n/a	1
440.569	0.499991155	GYMNAST	lure	n/a	n/a	n/a	1
441.069	0.383331494	IRONY	lure	n/a	n/a	n/a	1
441.452	0.616656502	DUST	short	n/a	n/a	n/a	1
442.069	0.520987861	FORBEAR	lure	n/a	n/a	n/a	1
442.59	0.495666046	SEASHORE	lure	n/a	n/a	n/a	1
443.086	0.68337231	BUFFALO	lure	n/a	n/a	n/a	1
443.769	0.483367741	ELLIPSE	lure	n/a	n/a	n/a	1
444.253	0.699897954	MAGNUM	lure	n/a	n/a	n/a	1
444.952	0.433328575	PATRON	lure	n/a	n/a	n/a	1
445.386	0.433424975	PANCAKE	lure	n/a	n/a	n/a	1
445.819	0.566786055	JESTER	lure	n/a	n/a	n/a	1
446.386	0.499769164	HONEYBEE	lure	n/a	n/a	n/a	1
446.886	0.466658355	ELVER	lure	n/a	n/a	n/a	1
447.352	0.349996817	BANQUET	lure	n/a	n/a	n/a	1
447.702	0.400041953	TRIO	lure	n/a	n/a	n/a	1
448.102	0.316615236	FILMSTRIP	lure	n/a	n/a	n/a	1
448.419	0.466654934	HUMIDITY	lure	n/a	n/a	n/a	1
448.886	0.649995988	RIVERBED	lure	n/a	n/a	n/a	1
449.536	0.683321701	FIREFLY	lure	n/a	n/a	n/a	1
450.219	0.616658438	MATTRESS	short	n/a	n/a	n/a	1
450.836	0.549990125	DIALOGUE	lure	n/a	n/a	n/a	1
451.386	0.549994755	FONT	lure	n/a	n/a	n/a	1
451.936	0.65297429	SPACESUIT	lure	n/a	n/a	n/a	1
452.589	0.713792105	GUNPOWDER	lure	n/a	n/a	n/a	1
453.302	0.616540775	INHALATION	lure	n/a	n/a	n/a	1
453.919	0.383385285	SYNERGISM	lure	n/a	n/a	n/a	1
454.302	0.616698605	VIGOR	lure	n/a	n/a	n/a	1
454.919	0.583226107	FINALIST	lure	n/a	n/a	n/a	1
455.502	0.766655634	SLIPCOVER	lure	n/a	n/a	n/a	1
456.269	0.61665838	LIGHTFOOT	lure	n/a	n/a	n/a	1
456.886	0.333327912	HAILSTONE	lure	n/a	n/a	n/a	1
457.219	0.550102136	FIRELIGHT	lure	n/a	n/a	n/a	1
457.769	0.333283348	CORROSION	lure	n/a	n/a	n/a	1
458.102	0.733258364	HATCHERY	lure	n/a	n/a	n/a	1
458.836	0.383329365	AVERSION	lure	n/a	n/a	n/a	1
459.219	0.416660399	CITADEL	lure	n/a	n/a	n/a	1
459.636	0.733324365	TRIPLET	lure	n/a	n/a	n/a	1
460.369	0.750035792	GIST	lure	n/a	n/a	n/a	1
461.119	0.516673074	TREE	lure	n/a	n/a	n/a	1
461.636	0.666595684	DEFICIT	lure	n/a	n/a	n/a	1
462.302	0.666658905	INHIBITOR	lure	n/a	n/a	n/a	1
462.969	0.349994027	MUTATION	lure	n/a	n/a	n/a	1
463.319	0.449993656	TIER	lure	n/a	n/a	n/a	1
463.769	0.599990553	RESCRIPT	lure	n/a	n/a	n/a	1
464.369	0.566660626	CONFECTION	lure	n/a	n/a	n/a	1
464.936	n/a	PROPERTY	lure	n/a	n/a	n/a	1