onset	duration	stim	cond	RT	resp	cresp	acc
4.052	0.666693851	GEEZER	lure	n/a	n/a	n/a	1
4.719	0.733340013	MAXIM	lure	n/a	n/a	n/a	1
5.452	0.616603689	GARDENIA	lure	n/a	n/a	n/a	1
6.069	0.566658501	HEADLAMP	lure	n/a	n/a	n/a	1
6.635	0.616659069	CURD	lure	n/a	n/a	n/a	1
7.252	0.403997653	GENERATOR	lure	n/a	n/a	n/a	1
7.656	2.01360026	PARCEL	long	n/a	n/a	n/a	1
9.67	0.31573603	PIGMENT	lure	n/a	n/a	n/a	1
9.985	0.533284685	ELIXIR	lure	n/a	n/a	n/a	1
10.519	0.44999522	PARADISE	lure	n/a	n/a	n/a	1
10.969	0.466713674	WILDLIFE	lure	n/a	n/a	n/a	1
11.435	0.549938564	CASINO	lure	n/a	n/a	n/a	1
11.985	0.587659247	DROPOUT	lure	n/a	n/a	n/a	1
12.573	0.545658682	SENIORITY	lure	n/a	n/a	n/a	1
13.119	0.41665617	UNDERLING	lure	n/a	n/a	n/a	1
13.535	0.583328795	CROSSOVER	lure	n/a	n/a	n/a	1
14.119	0.399994382	ARCHITECT	lure	n/a	n/a	n/a	1
14.519	0.433328602	OCCURRENCE	lure	n/a	n/a	n/a	1
14.952	0.583320969	AFFECTION	lure	n/a	n/a	n/a	1
15.535	0.649992847	MATTRESS	short	n/a	n/a	n/a	1
16.185	0.399996375	ASTRONOMER	lure	n/a	n/a	n/a	1
16.585	0.433327607	COMMOTION	lure	n/a	n/a	n/a	1
17.019	0.366660347	FLATFOOT	lure	n/a	n/a	n/a	1
17.385	0.416662277	ONION	lure	n/a	n/a	n/a	1
17.802	0.566657142	MEMORY	lure	n/a	n/a	n/a	1
18.368	0.633325981	GARDENER	lure	n/a	n/a	n/a	1
19.002	0.749987439	PAYROLL	lure	n/a	n/a	n/a	1
19.752	0.699989866	CAFFEINE	lure	n/a	n/a	n/a	1
20.452	0.699991488	CARTEL	lure	n/a	n/a	n/a	1
21.152	0.533326983	NOBODY	lure	n/a	n/a	n/a	1
21.685	0.587596241	OILFIELD	lure	n/a	n/a	n/a	1
22.273	0.512432165	NOUN	lure	n/a	n/a	n/a	1
22.785	0.616614327	CHAIRWOMAN	lure	n/a	n/a	n/a	1
23.402	0.550039472	BARRAGE	lure	n/a	n/a	n/a	1
23.952	2.016589423	DITCH	long	n/a	n/a	n/a	1
25.968	0.633323797	NEWSPAPER	lure	n/a	n/a	n/a	1
26.602	0.70004017	TESTICLE	lure	n/a	n/a	n/a	1
27.302	0.699939834	CAVEMEN	lure	n/a	n/a	n/a	1
28.002	0.416707539	CRAFTSMAN	lure	n/a	n/a	n/a	1
28.418	0.499991741	BRONZE	lure	n/a	n/a	n/a	1
28.918	0.483281984	CLIFF	lure	n/a	n/a	n/a	1
29.402	0.316725434	PAINTBRUSH	lure	n/a	n/a	n/a	1
29.718	0.433264379	PUPPETEER	lure	n/a	n/a	n/a	1
30.152	0.46665955	COUNTRYMEN	lure	n/a	n/a	n/a	1
30.618	0.583450739	WATCHMAN	lure	n/a	n/a	n/a	1
31.202	0.366532353	SKYDIVER	lure	n/a	n/a	n/a	1
31.568	0.39999893	BARBARITY	lure	n/a	n/a	n/a	1
31.968	0.349993173	CONTEXT	lure	n/a	n/a	n/a	1
32.318	2.016640338	ORNAMENT	long	n/a	n/a	n/a	1
34.335	0.353918754	WHEAT	lure	n/a	n/a	n/a	1
34.689	0.746063782	TONGUE	lure	n/a	n/a	n/a	1
35.435	0.38341943	RANCHER	lure	n/a	n/a	n/a	1
35.818	0.316571098	ABSTENTION	lure	n/a	n/a	n/a	1
36.135	0.683362899	PERCUSSION	lure	n/a	n/a	n/a	1
36.818	0.349955554	MENAGERIE	lure	n/a	n/a	n/a	1
37.168	0.466712361	COPYWRITER	lure	n/a	n/a	n/a	1
37.635	0.701970528	TIARA	lure	n/a	n/a	n/a	1
38.337	0.381296733	ROSETTE	lure	n/a	n/a	n/a	1
38.718	0.533324837	PROTECTION	lure	n/a	n/a	n/a	1
39.252	0.399994831	MOTIVATION	lure	n/a	n/a	n/a	1
39.652	0.683323729	KNOT	lure	n/a	n/a	n/a	1
40.335	0.516660066	COWLICK	lure	n/a	n/a	n/a	1
40.851	0.616656552	PIANO	short	n/a	n/a	n/a	1
41.468	0.349995509	MOTIVE	lure	n/a	n/a	n/a	1
41.818	0.399990462	BARRACK	lure	n/a	n/a	n/a	1
42.218	0.666661611	BONSAI	lure	n/a	n/a	n/a	1
42.885	0.383328678	GLYCERIN	lure	n/a	n/a	n/a	1
43.268	0.533325735	REVIVAL	lure	n/a	n/a	n/a	1
43.801	0.700050175	VELVET	lure	n/a	n/a	n/a	1
44.502	0.56665721	GALLON	lure	n/a	n/a	n/a	1
45.068	0.499932916	CATCHWORD	lure	n/a	n/a	n/a	1
45.568	0.400055001	ZODIAC	lure	n/a	n/a	n/a	1
45.968	0.716598179	PUMICE	lure	n/a	n/a	n/a	1
46.685	0.433324875	GOLFER	lure	n/a	n/a	n/a	1
47.118	0.483326621	LEADERSHIP	lure	n/a	n/a	n/a	1
47.601	0.417071778	MEMENTO	lure	n/a	n/a	n/a	1
48.018	0.317560424	PETITIONER	lure	n/a	n/a	n/a	1
48.336	0.568566391	FOLDER	lure	n/a	n/a	n/a	1
48.905	0.563444217	LANDMARK	lure	n/a	n/a	n/a	1
49.468	2.049968793	FOSSIL	long	n/a	n/a	n/a	1
51.518	0.400037743	COLLUSION	lure	n/a	n/a	n/a	1
51.918	0.349997007	TWINE	lure	n/a	n/a	n/a	1
52.268	0.483277434	ULTIMATUM	lure	n/a	n/a	n/a	1
52.751	0.499998757	OINTMENT	lure	n/a	n/a	n/a	1
53.251	0.666651035	UNDERTAKER	lure	n/a	n/a	n/a	1
53.918	0.483328237	VIGIL	lure	n/a	n/a	n/a	1
54.401	0.33339386	ANGEL	lure	n/a	n/a	n/a	1
54.735	0.384562838	NOOK	lure	n/a	n/a	n/a	1
55.119	0.64869059	CHOPSTICK	lure	n/a	n/a	n/a	1
55.768	0.683372302	VISITATION	lure	n/a	n/a	n/a	1
56.451	0.699945005	PROCTOR	lure	n/a	n/a	n/a	1
57.151	0.483327565	WORKINGMEN	lure	n/a	n/a	n/a	1
57.635	0.616657104	TIRE	short	n/a	n/a	n/a	1
58.251	0.433327882	BRUTE	lure	n/a	n/a	n/a	1
58.685	0.416660214	CYNIC	lure	n/a	n/a	n/a	1
59.101	0.433323181	EMBLEM	lure	n/a	n/a	n/a	1
59.535	0.716659923	PEEPER	lure	n/a	n/a	n/a	1
60.251	0.39999458	ETIQUETTE	lure	n/a	n/a	n/a	1
60.651	0.584727886	BASKET	lure	n/a	n/a	n/a	1
61.236	0.452565951	BURGUNDY	lure	n/a	n/a	n/a	1
61.689	0.650791767	PHOTON	lure	n/a	n/a	n/a	1
62.339	0.428552166	SNIFFER	lure	n/a	n/a	n/a	1
62.768	0.416716787	CORD	lure	n/a	n/a	n/a	1
63.185	0.549935524	ANTIQUITY	lure	n/a	n/a	n/a	1
63.735	0.733379946	CORNBREAD	lure	n/a	n/a	n/a	1
64.468	0.666655524	HAYFORK	lure	n/a	n/a	n/a	1
65.135	0.733324778	GHOUL	lure	n/a	n/a	n/a	1
65.868	2.016583167	BARREL	long	n/a	n/a	n/a	1
67.884	0.466706225	SHERIFF	lure	n/a	n/a	n/a	1
68.351	0.416672269	EXCAVATION	lure	n/a	n/a	n/a	1
68.768	0.699933605	ADMIRER	lure	n/a	n/a	n/a	1
69.468	0.716654435	LOCKUP	lure	n/a	n/a	n/a	1
70.184	0.633324665	SYCAMORE	lure	n/a	n/a	n/a	1
70.818	0.34999391	DEMOTION	lure	n/a	n/a	n/a	1
71.168	0.366662793	CHEESECAKE	lure	n/a	n/a	n/a	1
71.534	0.666714053	VERNACULAR	lure	n/a	n/a	n/a	1
72.201	0.666601138	SUET	lure	n/a	n/a	n/a	1
72.868	0.316661667	PAYMENT	lure	n/a	n/a	n/a	1
73.184	0.433385614	TRAVELLER	lure	n/a	n/a	n/a	1
73.618	0.433328955	NOSTALGIA	lure	n/a	n/a	n/a	1
74.051	0.616597956	CLOAK	short	n/a	n/a	n/a	1
74.668	0.616658154	OAT	lure	n/a	n/a	n/a	1
75.284	0.466716117	STONEWARE	lure	n/a	n/a	n/a	1
75.751	0.333272349	EQUALITY	lure	n/a	n/a	n/a	1
76.084	0.499993645	ATTRACTION	lure	n/a	n/a	n/a	1
76.584	0.649990193	AMBROSIA	lure	n/a	n/a	n/a	1
77.234	0.416662159	EJECTOR	lure	n/a	n/a	n/a	1
77.651	0.650046579	NUTHOUSE	lure	n/a	n/a	n/a	1
78.301	0.583268137	POMP	lure	n/a	n/a	n/a	1
78.884	0.533381743	PENICILLIN	lure	n/a	n/a	n/a	1
79.418	0.433333847	BACKYARD	lure	n/a	n/a	n/a	1
79.851	0.466597521	OFFENDER	lure	n/a	n/a	n/a	1
80.318	0.633325632	PLANKTON	lure	n/a	n/a	n/a	1
80.951	0.699988435	MARE	lure	n/a	n/a	n/a	1
81.651	0.666659181	CLUBFOOT	lure	n/a	n/a	n/a	1
82.318	0.616656344	MIRROR	short	n/a	n/a	n/a	1
82.934	0.699990872	HIGHLAND	lure	n/a	n/a	n/a	1
83.634	0.34999514	SOCIALITE	lure	n/a	n/a	n/a	1
83.984	0.637847896	DEVELOPER	lure	n/a	n/a	n/a	1
84.622	0.462192445	SOLILOQUY	lure	n/a	n/a	n/a	1
85.084	0.51660388	ANTITOXIN	lure	n/a	n/a	n/a	1
85.601	0.716657195	SQUATTER	lure	n/a	n/a	n/a	1
86.318	0.416659374	BIOSPHERE	lure	n/a	n/a	n/a	1
86.734	0.433373985	WOODSMAN	lure	n/a	n/a	n/a	1
87.168	0.466658252	DISSENSION	lure	n/a	n/a	n/a	1
87.634	0.733279107	PLATEFUL	lure	n/a	n/a	n/a	1
88.367	0.716656976	HANGMAN	lure	n/a	n/a	n/a	1
89.084	0.383388991	SALE	lure	n/a	n/a	n/a	1
89.468	0.433266076	TRAY	lure	n/a	n/a	n/a	1
89.901	0.73336673	AUDACITY	lure	n/a	n/a	n/a	1
90.634	1.016609283	PEACH	fruit	n/a	n/a	2	0
91.651	0.466658987	BRAINWAVE	lure	91	2	n/a	0
92.117	0.466705543	UNDERTONE	lure	n/a	n/a	n/a	1
92.584	0.483324167	ROBBER	lure	n/a	n/a	n/a	1
93.067	0.716614189	BUNNY	lure	n/a	n/a	n/a	1
93.784	0.616705936	STICKLER	lure	n/a	n/a	n/a	1
94.401	0.586869363	HOLDOVER	lure	n/a	n/a	n/a	1
94.988	0.631568124	CADDY	lure	n/a	n/a	n/a	1
95.619	0.367620846	SAUNA	lure	n/a	n/a	n/a	1
95.987	0.463921709	COMPULSION	lure	n/a	n/a	n/a	1
96.451	0.349937543	COMMITMENT	lure	n/a	n/a	n/a	1
96.801	0.350039874	SEASCAPE	lure	n/a	n/a	n/a	1
97.151	0.533280698	AXLE	lure	n/a	n/a	n/a	1
97.684	0.700037603	SPECTRUM	lure	n/a	n/a	n/a	1
98.384	0.516613053	SMALLPOX	lure	n/a	n/a	n/a	1
98.901	0.616714969	DUST	short	n/a	n/a	n/a	1
99.517	0.333271717	PINKIE	lure	n/a	n/a	n/a	1
99.851	0.54999198	SHEEN	lure	n/a	n/a	n/a	1
100.401	0.616658695	HAVOC	lure	n/a	n/a	n/a	1
101.017	0.699987954	AFTERSHAVE	lure	n/a	n/a	n/a	1
101.717	0.566659095	COALITION	lure	n/a	n/a	n/a	1
102.284	0.633326645	MORALE	lure	n/a	n/a	n/a	1
102.917	0.649988825	DEPOSITION	lure	n/a	n/a	n/a	1
103.567	0.433373105	DIARY	lure	n/a	n/a	n/a	1
104.001	0.399948134	HAIKU	lure	n/a	n/a	n/a	1
104.401	0.44999386	WILDCAT	lure	n/a	n/a	n/a	1
104.851	0.333372659	CHARITY	lure	n/a	n/a	n/a	1
105.184	0.366619538	OUTBURST	lure	n/a	n/a	n/a	1
105.551	0.549992762	KINFOLK	lure	n/a	n/a	n/a	1
106.101	0.366660072	LIGHTNING	lure	n/a	n/a	n/a	1
106.467	0.449988433	SQUIRE	lure	n/a	n/a	n/a	1
106.917	2.016644441	CABLE	long	n/a	n/a	n/a	1
108.934	0.433326371	CLASSICIST	lure	n/a	n/a	n/a	1
109.367	0.501633891	SLEEPER	lure	n/a	n/a	n/a	1
109.869	0.66501722	LABYRINTH	lure	n/a	n/a	n/a	1
110.534	0.683322782	BROADSHEET	lure	n/a	n/a	n/a	1
111.217	0.549991729	FOOTSTOOL	lure	n/a	n/a	n/a	1
111.767	0.466660702	STEED	lure	n/a	n/a	n/a	1
112.234	0.349994242	PURSUANCE	lure	n/a	n/a	n/a	1
112.584	0.583324779	WANDERER	lure	n/a	n/a	n/a	1
113.167	0.699986024	TUNAFISH	lure	n/a	n/a	n/a	1
113.867	0.566659787	BUSH	lure	n/a	n/a	n/a	1
114.434	0.433330376	HILT	lure	n/a	n/a	n/a	1
114.867	1.016652158	MANGO	fruit	611	2	2	1
115.884	0.383328785	COLE	lure	n/a	n/a	n/a	1
116.267	0.64998765	NEWSMAN	lure	n/a	n/a	n/a	1
116.917	0.449996446	AVIATOR	lure	n/a	n/a	n/a	1
117.367	0.599991738	REGENCY	lure	n/a	n/a	n/a	1
117.967	0.349995471	PASTRY	lure	n/a	n/a	n/a	1
118.317	0.616657455	NUTSHELL	lure	n/a	n/a	n/a	1
118.934	0.333329123	METHYL	lure	n/a	n/a	n/a	1
119.267	0.616658271	SHOPPER	lure	n/a	n/a	n/a	1
119.884	0.499993072	ANEMIA	lure	n/a	n/a	n/a	1
120.384	0.549991579	MEMORANDUM	lure	n/a	n/a	n/a	1
120.934	0.466659929	INVASION	lure	n/a	n/a	n/a	1
121.4	0.516659615	TRUFFLE	lure	n/a	n/a	n/a	1
121.917	0.649990043	TURTLE	lure	n/a	n/a	n/a	1
122.567	0.619745292	INDICATOR	lure	n/a	n/a	n/a	1
123.187	2.015600273	TAPE	long	n/a	n/a	n/a	1
125.202	0.797940818	INFLECTION	lure	n/a	n/a	n/a	1
126	0.766654755	MEGAPHONE	lure	n/a	n/a	n/a	1
126.767	0.566659386	PASSAGE	lure	n/a	n/a	n/a	1
127.334	0.716656933	RESOURCE	lure	n/a	n/a	n/a	1
128.05	0.399993267	SAGA	lure	n/a	n/a	n/a	1
128.45	0.466661045	CLERGYMEN	lure	n/a	n/a	n/a	1
128.917	0.616659605	HUSSY	lure	n/a	n/a	n/a	1
129.534	0.499992191	COYOTE	lure	n/a	n/a	n/a	1
130.034	0.449994108	CUTLERY	lure	n/a	n/a	n/a	1
130.484	0.549990975	STARTER	lure	n/a	n/a	n/a	1
131.034	2.05391339	RAINBOW	long	n/a	n/a	n/a	1
133.087	0.729380246	PINUP	lure	n/a	n/a	n/a	1
133.817	0.649991657	HUT	lure	n/a	n/a	n/a	1
134.467	0.549991985	LAD	lure	n/a	n/a	n/a	1
135.017	0.516660066	PROVIDENCE	lure	n/a	n/a	n/a	1
135.534	0.333328534	ZEPPELIN	lure	n/a	n/a	n/a	1
135.867	0.699991248	HESITANCE	lure	n/a	n/a	n/a	1
136.567	0.549991511	RARITY	lure	n/a	n/a	n/a	1
137.117	0.433326534	SHORTY	lure	n/a	n/a	n/a	1
137.55	0.383328006	FACULTY	lure	n/a	n/a	n/a	1
137.933	0.44999373	HORDE	lure	n/a	n/a	n/a	1
138.383	0.333328704	MUSTACHE	lure	n/a	n/a	n/a	1
138.717	0.533325755	SERENITY	lure	n/a	n/a	n/a	1
139.25	1.016653029	GRAPE	fruit	n/a	n/a	2	0
140.267	0.416660194	BALCONY	lure	n/a	n/a	n/a	1
140.683	0.366661553	ROPEWALK	lure	n/a	n/a	n/a	1
141.05	0.566659062	TOENAIL	lure	n/a	n/a	n/a	1
141.617	0.316661677	CHROME	lure	n/a	n/a	n/a	1
141.933	0.316662863	EXPOSURE	lure	n/a	n/a	n/a	1
142.25	0.333328654	HEMLINE	lure	n/a	n/a	n/a	1
142.583	0.433326805	HANDMAIDEN	lure	n/a	n/a	n/a	1
143.017	0.31666289	GESTALT	lure	n/a	n/a	n/a	1
143.333	0.64999071	PYRAMID	lure	n/a	n/a	n/a	1
143.983	0.366659828	KERCHIEF	lure	n/a	n/a	n/a	1
144.35	0.483328553	RESOn/aCE	lure	n/a	n/a	n/a	1
144.833	0.44999277	MORTUARY	lure	n/a	n/a	n/a	1
145.283	0.633325935	EXTRUSION	lure	n/a	n/a	n/a	1
145.917	0.399990282	FLASHBULB	lure	n/a	n/a	n/a	1
146.317	0.466662009	OPPONENT	lure	n/a	n/a	n/a	1
146.783	0.483330927	ORIGIN	lure	n/a	n/a	n/a	1
147.267	0.416656632	GLACIER	lure	n/a	n/a	n/a	1
147.683	0.616661685	BOTTLE	short	n/a	n/a	n/a	1
148.3	0.549988797	ROMPER	lure	n/a	n/a	n/a	1
148.85	0.368347613	TALON	lure	n/a	n/a	n/a	1
149.218	0.731638405	ANTELOPE	lure	n/a	n/a	n/a	1
149.95	0.566658874	ABSORBENCY	lure	n/a	n/a	n/a	1
150.517	0.649990888	HEEL	lure	n/a	n/a	n/a	1
151.167	0.666656712	REPTILE	lure	n/a	n/a	n/a	1
151.833	0.433326754	POOCH	lure	n/a	n/a	n/a	1
152.267	0.61665829	CARAVAN	lure	n/a	n/a	n/a	1
152.883	0.766655982	MOISTURE	lure	n/a	n/a	n/a	1
153.65	0.383322901	JUG	lure	n/a	n/a	n/a	1
154.033	0.549997933	HANDSHAKE	lure	n/a	n/a	n/a	1
154.583	0.749986379	TESTER	lure	n/a	n/a	n/a	1
155.333	0.583327919	CYNICISM	lure	n/a	n/a	n/a	1
155.917	1.016655391	CANTELOUPE	fruit	681	2	2	1
156.933	0.733320845	ENMITY	lure	n/a	n/a	n/a	1
157.667	0.749990482	EMOTION	lure	n/a	n/a	n/a	1
158.417	0.416658592	ISLE	lure	n/a	n/a	n/a	1
158.833	0.616659024	RECTIFIER	lure	n/a	n/a	n/a	1
159.45	0.617725878	SHAM	lure	n/a	n/a	n/a	1
160.068	0.382260345	EXPECTANCE	lure	n/a	n/a	n/a	1
160.45	0.516701717	WATERSIDE	lure	n/a	n/a	n/a	1
160.967	0.766613617	UMPIRE	lure	n/a	n/a	n/a	1
161.733	0.516746101	GASTRONOMY	lure	n/a	n/a	n/a	1
162.25	0.49990283	REFUND	lure	n/a	n/a	n/a	1
162.75	0.402256104	SETTLER	lure	n/a	n/a	n/a	1
163.152	0.566566765	CHINAWARE	lure	n/a	n/a	n/a	1
163.719	0.364489696	DEACON	lure	n/a	n/a	n/a	1
164.083	0.616727302	FERRY	short	n/a	n/a	n/a	1
164.7	0.716637886	CONVECTION	lure	n/a	n/a	n/a	1
165.416	0.366740443	HUMANITY	lure	n/a	n/a	n/a	1
165.783	0.399913156	APPETITE	lure	n/a	n/a	n/a	1
166.183	0.549950088	MILDEW	lure	n/a	n/a	n/a	1
166.733	0.499987462	PROTEGE	lure	n/a	n/a	n/a	1
167.233	0.633378906	TONER	lure	n/a	n/a	n/a	1
167.866	0.633286563	GAGGLE	lure	n/a	n/a	n/a	1
168.5	0.633311576	PENSION	lure	n/a	n/a	n/a	1
169.133	0.666659646	VILLAIN	lure	n/a	n/a	n/a	1
169.8	0.400042107	GARMENT	lure	n/a	n/a	n/a	1
170.2	0.416610792	LATECOMER	lure	n/a	n/a	n/a	1
170.616	0.666657732	SUEDE	lure	n/a	n/a	n/a	1
171.283	0.649992504	AFFIX	lure	n/a	n/a	n/a	1
171.933	0.583323769	POETRY	lure	n/a	n/a	n/a	1
172.516	1.016654481	ELDERBERRY	fruit	674	2	2	1
173.533	0.466657648	ARRIVAL	lure	n/a	n/a	n/a	1
174	0.633384475	NOTHING	lure	n/a	n/a	n/a	1
174.633	0.599930133	AGGRESSOR	lure	n/a	n/a	n/a	1
175.233	0.349998111	RANCH	lure	n/a	n/a	n/a	1
175.583	0.6167037	LAWYER	lure	n/a	n/a	n/a	1
176.2	0.483279724	THREAT	lure	n/a	n/a	n/a	1
176.683	0.583325347	STILETTO	lure	n/a	n/a	n/a	1
177.266	0.449991684	FROG	lure	n/a	n/a	n/a	1
177.716	0.7333694	NOZZLE	lure	n/a	n/a	n/a	1
178.45	0.649947005	HABITAT	lure	n/a	n/a	n/a	1
179.1	0.43332262	EXPLORER	lure	n/a	n/a	n/a	1
179.533	0.483331425	RADAR	lure	n/a	n/a	n/a	1
180.016	0.633325682	CONSORT	lure	n/a	n/a	n/a	1
180.65	0.616656716	TEAR	short	n/a	n/a	n/a	1
181.266	0.749985891	POTHOLE	lure	n/a	n/a	n/a	1
182.016	0.620928379	THERAPIST	lure	n/a	n/a	n/a	1
182.637	0.729055133	COLOGNE	lure	n/a	n/a	n/a	1
183.366	0.399996563	IDIOCY	lure	n/a	n/a	n/a	1
183.766	0.74998464	TEAPOT	lure	n/a	n/a	n/a	1
184.516	0.466662219	PRODUCER	lure	n/a	n/a	n/a	1
184.983	0.399994187	COHERENCE	lure	n/a	n/a	n/a	1
185.383	0.650041469	TRENCH	lure	n/a	n/a	n/a	1
186.033	0.333334874	SCUBA	lure	n/a	n/a	n/a	1
186.366	0.516653926	POINTER	lure	n/a	n/a	n/a	1
186.883	0.449941328	DOUGH	lure	n/a	n/a	n/a	1
187.333	0.583451426	STEIN	lure	n/a	n/a	n/a	1
187.916	0.599865981	PARASOL	lure	n/a	n/a	n/a	1
188.516	0.533324584	MOUTHPIECE	lure	n/a	n/a	n/a	1
189.049	2.016642757	CART	long	n/a	n/a	n/a	1
191.066	0.616655342	HERON	lure	n/a	n/a	n/a	1
191.683	0.499989125	MONEY	lure	n/a	n/a	n/a	1
192.183	0.450042164	SALMON	lure	n/a	n/a	n/a	1
192.633	0.466615939	CLAPPER	lure	n/a	n/a	n/a	1
193.099	0.44999494	ECOLOGY	lure	n/a	n/a	n/a	1
193.549	0.699988869	DEMOLITION	lure	n/a	n/a	n/a	1
194.249	0.383327603	RADIOLOGY	lure	n/a	n/a	n/a	1
194.633	0.66665909	ETERNITY	lure	n/a	n/a	n/a	1
195.299	0.466706243	ELONGATION	lure	n/a	n/a	n/a	1
195.766	0.683276694	INVESTOR	lure	n/a	n/a	n/a	1
196.449	0.316661743	BUTTERNUT	lure	n/a	n/a	n/a	1
196.766	0.616659551	RULER	short	n/a	n/a	n/a	1
197.383	0.416659881	MENTOR	lure	n/a	n/a	n/a	1
197.799	0.649988401	PRIMATE	lure	n/a	n/a	n/a	1
198.449	0.74999014	RACEWAY	lure	n/a	n/a	n/a	1
199.199	0.616657984	PATRIARCH	lure	n/a	n/a	n/a	1
199.816	0.799988426	PATIENCE	lure	n/a	n/a	n/a	1
200.616	0.616661045	SAVANNA	lure	n/a	n/a	n/a	1
201.233	0.64999054	ALPHABET	lure	n/a	n/a	n/a	1
201.883	0.4333247	CAMPGROUND	lure	n/a	n/a	n/a	1
202.316	0.583325776	SOFTBALL	lure	n/a	n/a	n/a	1
202.899	0.616659427	COVERAGE	lure	n/a	n/a	n/a	1
203.516	0.749989758	SPOKESMEN	lure	n/a	n/a	n/a	1
204.266	0.59999045	ABODE	lure	n/a	n/a	n/a	1
204.866	0.349996501	LOAFER	lure	n/a	n/a	n/a	1
205.216	2.016639538	NOVEL	long	n/a	n/a	n/a	1
207.232	0.483322936	PHYSIQUE	lure	n/a	n/a	n/a	1
207.716	0.349996752	STREAKER	lure	n/a	n/a	n/a	1
208.066	0.666658569	WOODMAN	lure	n/a	n/a	n/a	1
208.732	0.5833234	FREEBOARD	lure	n/a	n/a	n/a	1
209.316	0.666657765	STREAMSIDE	lure	n/a	n/a	n/a	1
209.982	0.749990975	LATENCY	lure	n/a	n/a	n/a	1
210.732	0.683316165	CAPITAL	lure	n/a	n/a	n/a	1
211.416	0.469830253	LOCALITY	lure	n/a	n/a	n/a	1
211.886	0.56656398	FLAPPER	lure	n/a	n/a	n/a	1
212.452	0.396926567	RISER	lure	n/a	n/a	n/a	1
212.849	0.499990402	BOTTLENECK	lure	n/a	n/a	n/a	1
213.349	1.016654102	PEACH	fruit	793	2	2	1
214.366	0.666656098	ARBOR	lure	n/a	n/a	n/a	1
215.032	0.516662858	CRUISER	lure	n/a	n/a	n/a	1
215.549	0.366660468	DETONATOR	lure	n/a	n/a	n/a	1
215.916	0.683320194	INCISION	lure	n/a	n/a	n/a	1
216.599	0.616661135	HOPPER	lure	n/a	n/a	n/a	1
217.216	0.483368648	RIVALRY	lure	n/a	n/a	n/a	1
217.699	0.366677455	BEDSIDE	lure	n/a	n/a	n/a	1
218.066	0.516594421	HISTAMINE	lure	n/a	n/a	n/a	1
218.582	0.433845395	ACRONYM	lure	n/a	n/a	n/a	1
219.016	0.39948266	ROSEMARY	lure	n/a	n/a	n/a	1
219.416	0.549985886	RINGSIDE	lure	n/a	n/a	n/a	1
219.966	0.699993616	HOSPITAL	lure	n/a	n/a	n/a	1
220.666	0.633327674	LONGBOAT	lure	n/a	n/a	n/a	1
221.299	0.416659314	ROOFTOP	lure	n/a	n/a	n/a	1
221.716	0.433327551	WALNUT	lure	n/a	n/a	n/a	1
222.149	0.383327453	ANXIETY	lure	n/a	n/a	n/a	1
222.532	0.366660463	EQUIPMENT	lure	n/a	n/a	n/a	1
222.899	0.649993095	EXHAUSTION	lure	n/a	n/a	n/a	1
223.549	0.733365465	BARBER	lure	n/a	n/a	n/a	1
224.282	0.583282726	SATELLITE	lure	n/a	n/a	n/a	1
224.866	0.733379928	BURLAP	lure	n/a	n/a	n/a	1
225.599	0.466602779	INFANTRY	lure	n/a	n/a	n/a	1
226.066	0.366660784	SONNET	lure	n/a	n/a	n/a	1
226.432	0.416658306	PANSY	lure	n/a	n/a	n/a	1
226.849	n/a	STAMINA	lure	n/a	n/a	n/a	1
238.015	0.516721407	GUESSWORK	lure	n/a	n/a	n/a	1
238.532	0.416599298	JOCKEY	lure	n/a	n/a	n/a	1
238.949	0.499995588	PANE	lure	n/a	n/a	n/a	1
239.449	0.516656723	DESIGNER	lure	n/a	n/a	n/a	1
239.965	0.399993843	GRANNY	lure	n/a	n/a	n/a	1
240.365	0.616748061	PEACETIME	lure	n/a	n/a	n/a	1
240.982	0.321284237	TYPOLOGY	lure	n/a	n/a	n/a	1
241.303	0.697793222	COLESLAW	lure	n/a	n/a	n/a	1
242.001	2.014120858	NOVEL	long	n/a	n/a	n/a	1
244.015	0.433390006	MOTHERLAND	lure	n/a	n/a	n/a	1
244.449	0.53331886	OMELET	lure	n/a	n/a	n/a	1
244.982	0.833268763	GRANDMA	lure	n/a	n/a	n/a	1
245.815	0.466705045	CONVERSANT	lure	n/a	n/a	n/a	1
246.282	0.58327947	INFLUX	lure	n/a	n/a	n/a	1
246.865	0.399991512	INTERLINK	lure	n/a	n/a	n/a	1
247.265	0.583375824	MANICURIST	lure	n/a	n/a	n/a	1
247.849	0.666611188	ILLEGALITY	lure	n/a	n/a	n/a	1
248.515	0.516654833	COMMANDANT	lure	n/a	n/a	n/a	1
249.032	0.549995958	SIDELINE	lure	n/a	n/a	n/a	1
249.582	0.699991119	ANNEX	lure	n/a	n/a	n/a	1
250.282	0.616656743	BOTTLE	short	n/a	n/a	n/a	1
250.899	0.549992311	TOUPEE	lure	n/a	n/a	n/a	1
251.449	0.333374962	GUY	lure	n/a	n/a	n/a	1
251.782	0.683277486	BROCCOLI	lure	n/a	n/a	n/a	1
252.465	0.43332879	RADIATOR	lure	n/a	n/a	n/a	1
252.899	0.69998942	COLA	lure	n/a	n/a	n/a	1
253.599	0.749990657	FILTRATION	lure	n/a	n/a	n/a	1
254.349	0.516703164	VESICLE	lure	n/a	n/a	n/a	1
254.865	0.716611683	CREMATION	lure	n/a	n/a	n/a	1
255.582	0.483324844	DIVORCEE	lure	n/a	n/a	n/a	1
256.065	0.333329301	HAMLET	lure	n/a	n/a	n/a	1
256.398	0.383324988	HANGOUT	lure	n/a	n/a	n/a	1
256.782	0.749991996	INVERSION	lure	n/a	n/a	n/a	1
257.532	0.583325969	REFEREE	lure	n/a	n/a	n/a	1
258.115	0.33332791	AUTOGRAPH	lure	n/a	n/a	n/a	1
258.448	0.616659289	RULER	short	n/a	n/a	n/a	1
259.065	0.616657746	PALETTE	lure	n/a	n/a	n/a	1
259.682	0.449993589	COCOA	lure	n/a	n/a	n/a	1
260.132	0.553748988	HOTPLATE	lure	n/a	n/a	n/a	1
260.686	0.379570036	ALLEGATION	lure	n/a	n/a	n/a	1
261.065	0.749989958	TIPOFF	lure	n/a	n/a	n/a	1
261.815	0.616658592	PROPAGANDA	lure	n/a	n/a	n/a	1
262.432	0.349994391	HUB	lure	n/a	n/a	n/a	1
262.782	0.56665911	SCROOGE	lure	n/a	n/a	n/a	1
263.348	0.649992243	SURFBOARD	lure	n/a	n/a	n/a	1
263.998	0.449990689	ALLUSION	lure	n/a	n/a	n/a	1
264.448	0.683325566	AQUEDUCT	lure	n/a	n/a	n/a	1
265.132	0.383327413	WORKMAN	lure	n/a	n/a	n/a	1
265.515	0.349994894	HAIRSTYLE	lure	n/a	n/a	n/a	1
265.865	0.399994126	MOOSE	lure	n/a	n/a	n/a	1
266.265	0.616658475	TIRE	short	n/a	n/a	n/a	1
266.882	0.703867285	JEWELRY	lure	n/a	n/a	n/a	1
267.586	0.700569401	EXTREMISM	lure	n/a	n/a	n/a	1
268.286	0.362205044	TAILWIND	lure	n/a	n/a	n/a	1
268.648	0.316663075	POLYGON	lure	n/a	n/a	n/a	1
268.965	0.449992749	SORORITY	lure	n/a	n/a	n/a	1
269.415	0.483326716	STOVE	lure	n/a	n/a	n/a	1
269.898	0.749989166	DILATATION	lure	n/a	n/a	n/a	1
270.648	0.716657009	APPLIANCE	lure	n/a	n/a	n/a	1
271.365	0.36666313	FERTILITY	lure	n/a	n/a	n/a	1
271.732	0.58332459	REALTY	lure	n/a	n/a	n/a	1
272.315	0.633323555	CONVERTER	lure	n/a	n/a	n/a	1
272.948	0.483327094	CURBSIDE	lure	n/a	n/a	n/a	1
273.432	0.399994525	PINGPONG	lure	n/a	n/a	n/a	1
273.832	0.649989151	CATTLEMEN	lure	n/a	n/a	n/a	1
274.482	0.449994057	FINCH	lure	n/a	n/a	n/a	1
274.932	2.016640604	RAINBOW	long	n/a	n/a	n/a	1
276.948	0.699988678	REMARRIAGE	lure	n/a	n/a	n/a	1
277.648	0.333328584	PAYMASTER	lure	n/a	n/a	n/a	1
277.982	0.516656121	STYLE	lure	n/a	n/a	n/a	1
278.498	0.483329473	PREACHER	lure	n/a	n/a	n/a	1
278.981	0.649989717	OCEANSIDE	lure	n/a	n/a	n/a	1
279.631	0.733325427	PHONOGRAPH	lure	n/a	n/a	n/a	1
280.365	0.4166605	PETUNIA	lure	n/a	n/a	n/a	1
280.781	0.683323308	KOALA	lure	n/a	n/a	n/a	1
281.465	0.483326342	MINDER	lure	n/a	n/a	n/a	1
281.948	0.549993629	MOLEHILL	lure	n/a	n/a	n/a	1
282.498	0.549990614	SCRIMMAGE	lure	n/a	n/a	n/a	1
283.048	0.6166604	CLOAK	short	n/a	n/a	n/a	1
283.665	0.733322116	COOP	lure	n/a	n/a	n/a	1
284.398	0.716654718	DERAILMENT	lure	n/a	n/a	n/a	1
285.115	0.449994208	ECOSYSTEM	lure	n/a	n/a	n/a	1
285.565	0.749989715	MICROSCOPE	lure	n/a	n/a	n/a	1
286.315	0.716656676	DENTURE	lure	n/a	n/a	n/a	1
287.031	0.633325173	COP	lure	n/a	n/a	n/a	1
287.665	0.766655233	JACKAL	lure	n/a	n/a	n/a	1
288.431	0.716656375	SCULLERY	lure	n/a	n/a	n/a	1
289.148	0.599991698	DINNER	lure	n/a	n/a	n/a	1
289.748	0.416662106	HOG	lure	n/a	n/a	n/a	1
290.165	0.649989712	MOTHER	lure	n/a	n/a	n/a	1
290.815	0.383327821	STERLING	lure	n/a	n/a	n/a	1
291.198	2.016638762	CABLE	long	n/a	n/a	n/a	1
293.215	0.649989825	FLAPJACK	lure	n/a	n/a	n/a	1
293.865	0.733324053	SHAKEDOWN	lure	n/a	n/a	n/a	1
294.598	0.349994822	COCHLEA	lure	n/a	n/a	n/a	1
294.948	0.383388182	DOCUMENT	lure	n/a	n/a	n/a	1
295.331	0.483266325	SCORCHER	lure	n/a	n/a	n/a	1
295.815	0.633322975	PUMA	lure	n/a	n/a	n/a	1
296.448	0.66785984	CAMERA	lure	n/a	n/a	n/a	1
297.116	0.469416193	WOOL	lure	n/a	n/a	n/a	1
297.585	0.34603937	EXAMINER	lure	n/a	n/a	n/a	1
297.931	0.549992358	ARTIFACT	lure	n/a	n/a	n/a	1
298.481	0.416659525	LEGIBILITY	lure	n/a	n/a	n/a	1
298.898	0.516659043	SHERRY	lure	n/a	n/a	n/a	1
299.415	2.016639446	DITCH	long	n/a	n/a	n/a	1
301.431	0.616658407	PALACE	lure	n/a	n/a	n/a	1
302.048	0.700048964	ALUMNI	lure	n/a	n/a	n/a	1
302.748	0.666597133	PSEUDONYM	lure	n/a	n/a	n/a	1
303.414	0.349994724	SAINT	lure	n/a	n/a	n/a	1
303.764	0.416660549	SCORECARD	lure	n/a	n/a	n/a	1
304.181	0.487889806	FERN	lure	n/a	n/a	n/a	1
304.669	0.49549035	PUNISHMENT	lure	n/a	n/a	n/a	1
305.165	0.683871919	ADJUNCT	lure	n/a	n/a	n/a	1
305.848	0.468563537	FABLE	lure	n/a	n/a	n/a	1
306.317	0.49778789	LEGITIMACY	lure	n/a	n/a	n/a	1
306.815	0.349747007	NAMESAKE	lure	n/a	n/a	n/a	1
307.164	0.399935665	AUTHORSHIP	lure	n/a	n/a	n/a	1
307.564	0.616658037	MATTRESS	short	n/a	n/a	n/a	1
308.181	0.43338609	VEIN	lure	n/a	n/a	n/a	1
308.614	0.716597894	SPOKESMAN	lure	n/a	n/a	n/a	1
309.331	0.483326954	EQUITY	lure	n/a	n/a	n/a	1
309.814	0.36924431	NECKLINE	lure	n/a	n/a	n/a	1
310.184	0.66407514	TEAROOM	lure	n/a	n/a	n/a	1
310.848	0.466659333	PROSTATE	lure	n/a	n/a	n/a	1
311.314	0.333372125	POLYGAMY	lure	n/a	n/a	n/a	1
311.648	0.499949706	OXIDATION	lure	n/a	n/a	n/a	1
312.148	0.516660424	DESERTION	lure	n/a	n/a	n/a	1
312.664	0.566657554	PREMIERE	lure	n/a	n/a	n/a	1
313.231	0.566706395	INSECURITY	lure	n/a	n/a	n/a	1
313.798	0.733320588	HEARTBEAT	lure	n/a	n/a	n/a	1
314.531	0.666612754	SPATIALITY	lure	n/a	n/a	n/a	1
315.198	0.366660999	PROBATE	lure	n/a	n/a	n/a	1
315.564	0.616658127	PIANO	short	n/a	n/a	n/a	1
316.181	0.766655371	WATERSPOUT	lure	n/a	n/a	n/a	1
316.948	0.671045905	PLAZA	lure	n/a	n/a	n/a	1
317.619	0.445649981	AIRLINE	lure	n/a	n/a	n/a	1
318.064	0.483282025	CAFETERIA	lure	n/a	n/a	n/a	1
318.548	0.666657118	CACHET	lure	n/a	n/a	n/a	1
319.214	0.566660065	KNIGHTHOOD	lure	n/a	n/a	n/a	1
319.781	0.433370403	DEUCE	lure	n/a	n/a	n/a	1
320.214	0.516616011	FOOTSTEP	lure	n/a	n/a	n/a	1
320.731	0.766658953	PRETENCE	lure	n/a	n/a	n/a	1
321.498	0.633315793	COLLAGEN	lure	n/a	n/a	n/a	1
322.131	0.599997437	BEDSTEAD	lure	n/a	n/a	n/a	1
322.731	0.633383662	MONASTERY	lure	n/a	n/a	n/a	1
323.364	0.499931353	INFINITY	lure	n/a	n/a	n/a	1
323.864	2.016640047	TAPE	long	n/a	n/a	n/a	1
325.881	0.583323616	DETENTION	lure	n/a	n/a	n/a	1
326.464	0.41666282	GAUNTLET	lure	n/a	n/a	n/a	1
326.881	0.700036816	INTRICACY	lure	n/a	n/a	n/a	1
327.581	0.483337012	EIGHTIETH	lure	n/a	n/a	n/a	1
328.064	0.549930787	COCKTAIL	lure	n/a	n/a	n/a	1
328.614	0.399997379	GLYCEROL	lure	n/a	n/a	n/a	1
329.014	0.566659506	HANDBRAKE	lure	n/a	n/a	n/a	1
329.581	0.733322402	COMBO	lure	n/a	n/a	n/a	1
330.314	0.516659467	SUMMERTIME	lure	n/a	n/a	n/a	1
330.831	0.549993276	TELEVISION	lure	n/a	n/a	n/a	1
331.381	0.349995561	IGNITION	lure	n/a	n/a	n/a	1
331.731	0.733322231	UNLOADER	lure	n/a	n/a	n/a	1
332.464	2.049971305	FOSSIL	long	n/a	n/a	n/a	1
334.514	0.64999191	SEAGULL	lure	n/a	n/a	n/a	1
335.164	0.516658931	LINT	lure	n/a	n/a	n/a	1
335.681	0.416660151	DRESSMAKER	lure	n/a	n/a	n/a	1
336.097	0.566657989	DREAMER	lure	n/a	n/a	n/a	1
336.664	0.716655972	SUFFIX	lure	n/a	n/a	n/a	1
337.381	0.333328614	RUBBLE	lure	n/a	n/a	n/a	1
337.714	0.533326206	BALLPLAYER	lure	n/a	n/a	n/a	1
338.247	0.620212367	EYEWASH	lure	n/a	n/a	n/a	1
338.868	0.613104179	PAPERBACK	lure	n/a	n/a	n/a	1
339.481	0.583326112	BIZ	lure	n/a	n/a	n/a	1
340.064	0.599991089	STAIRCASE	lure	n/a	n/a	n/a	1
340.664	0.616658084	FERRY	short	n/a	n/a	n/a	1
341.281	0.716657051	REDNECK	lure	n/a	n/a	n/a	1
341.997	0.699988481	JAG	lure	n/a	n/a	n/a	1
342.697	0.699989337	HEXAGON	lure	n/a	n/a	n/a	1
343.397	0.749985567	MITTEN	lure	n/a	n/a	n/a	1
344.147	0.59999724	PATHWAY	lure	n/a	n/a	n/a	1
344.747	0.416659905	SEQUEL	lure	n/a	n/a	n/a	1
345.164	0.633325289	APOLOGIST	lure	n/a	n/a	n/a	1
345.797	0.66665577	NOVOCAINE	lure	n/a	n/a	n/a	1
346.464	0.699991209	LUCK	lure	n/a	n/a	n/a	1
347.164	0.749988768	CLERIC	lure	n/a	n/a	n/a	1
347.914	0.599992818	CATALYST	lure	n/a	n/a	n/a	1
348.514	0.733323833	SIDECAR	lure	n/a	n/a	n/a	1
349.247	1.016650226	PEAR	fruit	759	2	2	1
350.264	0.366661723	GROWTH	lure	n/a	n/a	n/a	1
350.63	0.716656214	CHARGER	lure	n/a	n/a	n/a	1
351.347	0.633326801	AUTHORITY	lure	n/a	n/a	n/a	1
351.98	0.716656866	AUTUMN	lure	n/a	n/a	n/a	1
352.697	0.816652736	PRECISION	lure	n/a	n/a	n/a	1
353.514	0.703057508	CASKET	lure	n/a	n/a	n/a	1
354.217	0.514564141	EPILOGUE	lure	n/a	n/a	n/a	1
354.731	0.33235828	PUPIL	lure	n/a	n/a	n/a	1
355.064	0.749988417	POLARITY	lure	n/a	n/a	n/a	1
355.814	0.333328023	FIGHTER	lure	n/a	n/a	n/a	1
356.147	0.566659363	MUSCLEMAN	lure	n/a	n/a	n/a	1
356.714	0.316661391	COLLOQUIUM	lure	n/a	n/a	n/a	1
357.03	0.683323857	DRIVEWAY	lure	n/a	n/a	n/a	1
357.714	2.016639408	BARREL	long	n/a	n/a	n/a	1
359.73	0.449993017	JUDGESHIP	lure	n/a	n/a	n/a	1
360.18	0.516659505	FINGERNAIL	lure	n/a	n/a	n/a	1
360.697	0.499992788	COWBOY	lure	n/a	n/a	n/a	1
361.197	0.733323041	TITLE	lure	n/a	n/a	n/a	1
361.93	0.399993061	TOTALITY	lure	n/a	n/a	n/a	1
362.33	0.466665478	CENTRIFUGE	lure	n/a	n/a	n/a	1
362.797	0.649984532	GIFT	lure	n/a	n/a	n/a	1
363.447	0.416662405	DISPENSER	lure	n/a	n/a	n/a	1
363.864	0.316666072	TREND	lure	n/a	n/a	n/a	1
364.18	0.433326449	ROVER	lure	n/a	n/a	n/a	1
364.614	0.399993327	ORPHANAGE	lure	n/a	n/a	n/a	1
365.014	0.533326434	THYROID	lure	n/a	n/a	n/a	1
365.547	0.749991412	SPECTRA	lure	n/a	n/a	n/a	1
366.297	0.616657301	MIRROR	short	n/a	n/a	n/a	1
366.914	0.733320483	LITERACY	lure	n/a	n/a	n/a	1
367.647	0.533328196	COMMA	lure	n/a	n/a	n/a	1
368.18	0.666657578	TANG	lure	n/a	n/a	n/a	1
368.847	0.649985709	ROADSTER	lure	n/a	n/a	n/a	1
369.497	0.699995537	RINGMASTER	lure	n/a	n/a	n/a	1
370.197	0.649989835	CANNON	lure	n/a	n/a	n/a	1
370.847	0.549990889	FACSIMILE	lure	n/a	n/a	n/a	1
371.397	0.349995346	WITHDRAWAL	lure	n/a	n/a	n/a	1
371.747	0.633832059	ENTITY	lure	n/a	n/a	n/a	1
372.381	0.536565335	PLATFORM	lure	n/a	n/a	n/a	1
372.917	0.54630187	UNDERTOW	lure	n/a	n/a	n/a	1
373.464	0.533325692	PEn/aCE	lure	n/a	n/a	n/a	1
373.997	0.449937983	STAIRWAY	lure	n/a	n/a	n/a	1
374.447	1.016699157	ORANGE	fruit	743	2	2	1
375.464	0.583276755	RAFT	lure	n/a	n/a	n/a	1
376.047	0.666660139	COWBELL	lure	n/a	n/a	n/a	1
376.713	0.599990305	SEEDLING	lure	n/a	n/a	n/a	1
377.313	0.749989123	KNOCKOUT	lure	n/a	n/a	n/a	1
378.063	0.566703963	EXPENSE	lure	n/a	n/a	n/a	1
378.63	0.333284318	REPENTANCE	lure	n/a	n/a	n/a	1
378.963	0.633381567	TUBE	lure	n/a	n/a	n/a	1
379.597	0.453476272	SINGSONG	lure	n/a	n/a	n/a	1
380.05	0.529785424	TAILPIECE	lure	n/a	n/a	n/a	1
380.58	0.35003787	VALOR	lure	n/a	n/a	n/a	1
380.93	0.699948431	BASKETBALL	lure	n/a	n/a	n/a	1
381.63	0.466659899	INHALER	lure	n/a	n/a	n/a	1
382.097	0.666652338	COMPETITOR	lure	n/a	n/a	n/a	1
382.763	0.616663756	DUST	short	n/a	n/a	n/a	1
383.38	0.616658224	THERAPY	lure	n/a	n/a	n/a	1
383.997	0.416657602	BOOKSTALL	lure	n/a	n/a	n/a	1
384.413	0.466663303	COUPLER	lure	n/a	n/a	n/a	1
384.88	0.466658092	EVANGELISM	lure	n/a	n/a	n/a	1
385.347	0.399994585	EYELID	lure	n/a	n/a	n/a	1
385.747	0.416718935	BEE	lure	n/a	n/a	n/a	1
386.163	0.633268482	TOPSIDE	lure	n/a	n/a	n/a	1
386.797	0.516656733	ASSESSOR	lure	n/a	n/a	n/a	1
387.313	0.716651843	MAT	lure	n/a	n/a	n/a	1
388.03	0.599993893	CARDBOARD	lure	n/a	n/a	n/a	1
388.63	0.749991989	INDIGO	lure	n/a	n/a	n/a	1
389.38	0.451359005	REGIME	lure	n/a	n/a	n/a	1
389.831	0.415343662	FLUX	lure	n/a	n/a	n/a	1
390.247	0.71660851	PERIPHERY	lure	n/a	n/a	n/a	1
390.963	2.016634624	PARCEL	long	n/a	n/a	n/a	1
392.98	0.69999429	SCANNER	lure	n/a	n/a	n/a	1
393.68	0.416661121	SCARFACE	lure	n/a	n/a	n/a	1
394.097	0.583324686	GOVERNMENT	lure	n/a	n/a	n/a	1
394.68	0.583325708	NIGHTCAP	lure	n/a	n/a	n/a	1
395.263	0.683323472	RETRIEVAL	lure	n/a	n/a	n/a	1
395.947	0.41666001	LAYOVER	lure	n/a	n/a	n/a	1
396.363	0.566661862	PRECAUTION	lure	n/a	n/a	n/a	1
396.93	0.666655769	MASCARA	lure	n/a	n/a	n/a	1
397.596	0.333323247	STRAIT	lure	n/a	n/a	n/a	1
397.93	0.516663295	GUST	lure	n/a	n/a	n/a	1
398.446	0.599991448	INDENT	lure	n/a	n/a	n/a	1
399.046	0.616659048	TEAR	short	n/a	n/a	n/a	1
399.663	0.518762352	FLINT	lure	n/a	n/a	n/a	1
400.182	0.531221815	METHANE	lure	n/a	n/a	n/a	1
400.713	0.466706085	EVANGELIST	lure	n/a	n/a	n/a	1
401.18	0.349993796	BOOTH	lure	n/a	n/a	n/a	1
401.53	0.583280717	BRIDGEHEAD	lure	n/a	n/a	n/a	1
402.113	0.316662358	WEAPOn/aY	lure	n/a	n/a	n/a	1
402.43	0.616658305	KITE	lure	n/a	n/a	n/a	1
403.046	0.61665414	STORYLINE	lure	n/a	n/a	n/a	1
403.663	0.683322728	UPTURN	lure	n/a	n/a	n/a	1
404.346	0.633374592	RAPIDITY	lure	n/a	n/a	n/a	1
404.98	0.433324975	COLUMN	lure	n/a	n/a	n/a	1
405.413	0.583282691	OUTREACH	lure	n/a	n/a	n/a	1
405.996	0.750038595	CRITERIA	lure	n/a	n/a	n/a	1
406.746	0.316663576	CLICHE	lure	n/a	n/a	n/a	1
407.063	1.016604168	PINEAPPLE	fruit	n/a	n/a	2	0
408.08	0.349994967	ACTIVATION	lure	n/a	n/a	n/a	1
408.43	0.316655705	THIEF	lure	n/a	n/a	n/a	1
408.746	0.433331651	RIVERSIDE	lure	n/a	n/a	n/a	1
409.18	0.416660752	MOURNER	lure	n/a	n/a	n/a	1
409.596	0.716658882	FORTUNE	lure	n/a	n/a	n/a	1
410.313	0.716657031	EXCISE	lure	n/a	n/a	n/a	1
411.03	0.433324502	HAIR	lure	n/a	n/a	n/a	1
411.463	0.433326145	DOLT	lure	n/a	n/a	n/a	1
411.896	0.616659049	TIDBIT	lure	n/a	n/a	n/a	1
412.513	0.483326947	DISCOVERY	lure	n/a	n/a	n/a	1
412.996	0.383328039	VISA	lure	n/a	n/a	n/a	1
413.38	0.583325931	PHOTOFLASH	lure	n/a	n/a	n/a	1
413.963	0.699984959	JOVIALITY	lure	n/a	n/a	n/a	1
414.663	0.349996224	LOGGER	lure	n/a	n/a	n/a	1
415.013	2.016696316	CART	long	n/a	n/a	n/a	1
417.03	0.416664475	JAWBREAKER	lure	n/a	n/a	n/a	1
417.446	0.36660213	GROUNDSMAN	lure	n/a	n/a	n/a	1
417.813	0.699990911	NEIGHBOR	lure	n/a	n/a	n/a	1
418.513	0.616705297	ACTOR	lure	n/a	n/a	n/a	1
419.13	0.41667059	GIGGLE	lure	n/a	n/a	n/a	1
419.546	0.549982095	DIALECTIC	lure	n/a	n/a	n/a	1
420.096	0.616612184	MOKE	lure	n/a	n/a	n/a	1
420.713	0.54999208	DEW	lure	n/a	n/a	n/a	1
421.263	0.366656098	COOKBOOK	lure	n/a	n/a	n/a	1
421.629	0.349998716	PROVEn/aCE	lure	n/a	n/a	n/a	1
421.979	0.599992134	MAILBAG	lure	n/a	n/a	n/a	1
422.579	0.399992823	ASTERISK	lure	n/a	n/a	n/a	1
422.979	1.016656004	CHERRY	fruit	827	2	2	1
423.996	0.683321301	REVENGE	lure	n/a	n/a	n/a	1
424.679	0.450012899	COMPANY	lure	n/a	n/a	n/a	1
425.129	0.550019231	FIREPLACE	lure	n/a	n/a	n/a	1
425.679	0.749943166	PROPORTION	lure	n/a	n/a	n/a	1
426.429	0.569768411	VELOUR	lure	n/a	n/a	n/a	1
426.999	0.613547643	SURREALISM	lure	n/a	n/a	n/a	1
427.613	0.433328418	EVICTION	lure	n/a	n/a	n/a	1
428.046	0.416661229	PIPER	lure	n/a	n/a	n/a	1
428.463	0.399993903	TRANSITION	lure	n/a	n/a	n/a	1
428.863	0.449991876	FREEBIE	lure	n/a	n/a	n/a	1
429.313	0.683383795	FEAT	lure	n/a	n/a	n/a	1
429.996	0.499937939	COLLATION	lure	n/a	n/a	n/a	1
430.496	0.633322966	SEASON	lure	n/a	n/a	n/a	1
431.129	2.016639763	ORNAMENT	long	n/a	n/a	n/a	1
433.146	0.599992548	BUCKWHEAT	lure	n/a	n/a	n/a	1
433.746	0.333325171	POLYNOMIAL	lure	n/a	n/a	n/a	1
434.079	0.399993973	OPTIMIST	lure	n/a	n/a	n/a	1
434.479	0.349996328	CASEWORKER	lure	n/a	n/a	n/a	1
434.829	0.633320412	MOVIE	lure	n/a	n/a	n/a	1
435.463	0.41666288	EARPLUG	lure	n/a	n/a	n/a	1
435.879	0.533326702	COMMANDO	lure	n/a	n/a	n/a	1
436.413	0.538159709	BUSTLE	lure	n/a	n/a	n/a	1
436.951	0.711821095	WRATH	lure	n/a	n/a	n/a	1
437.663	0.716656568	SCROLLWORK	lure	n/a	n/a	n/a	1
438.379	0.349997982	RECOMPENSE	lure	n/a	n/a	n/a	1
438.729	0.649984842	HANDSTAND	lure	n/a	n/a	n/a	1
439.379	1.016652306	PLUM	fruit	n/a	n/a	2	0
440.396	0.485794495	RIFT	lure	186	2	n/a	0
440.882	0.747524261	HEADBAND	lure	n/a	n/a	n/a	1
441.629	0.570614853	ABSOLUTION	lure	n/a	n/a	n/a	1
442.2	0.700566047	POLE	lure	n/a	n/a	n/a	1
442.9	0.499787372	LEAFLET	lure	n/a	n/a	n/a	1
443.4	0.362337968	KETTLE	lure	n/a	n/a	n/a	1
443.763	0.766654697	RUGBY	lure	n/a	n/a	n/a	1
444.529	0.666654035	SUSPENSION	lure	n/a	n/a	n/a	1
445.196	0.583327263	WONDERLAND	lure	n/a	n/a	n/a	1
445.779	0.499994324	ANTIFREEZE	lure	n/a	n/a	n/a	1
446.279	0.721161545	MARSUPIAL	lure	n/a	n/a	n/a	1
447	0.528818342	TORSO	lure	n/a	n/a	n/a	1
447.529	1.016656095	ELDERBERRY	fruit	797	2	2	1
448.546	0.583324082	WARMTH	lure	n/a	n/a	n/a	1
449.129	0.499990406	RAY	lure	n/a	n/a	n/a	1
449.629	0.549992486	PIRATE	lure	n/a	n/a	n/a	1
450.179	0.349996832	KNAPSACK	lure	n/a	n/a	n/a	1
450.529	0.46670497	SURCHARGE	lure	n/a	n/a	n/a	1
450.996	0.61721618	REFUGEE	lure	n/a	n/a	n/a	1
451.613	0.516057993	FOOTBRIDGE	lure	n/a	n/a	n/a	1
452.129	0.501074559	JERSEY	lure	n/a	n/a	n/a	1
452.63	0.515576691	MISPRINT	lure	n/a	n/a	n/a	1
453.146	0.449993601	TIGHTWAD	lure	n/a	n/a	n/a	1
453.596	0.433327645	VOCALIST	lure	n/a	n/a	n/a	1
454.029	0.599991044	COOKIE	lure	n/a	n/a	n/a	1
454.629	0.53332503	MOMMA	lure	n/a	n/a	n/a	1
455.162	0.433327176	GUARDHOUSE	lure	n/a	n/a	n/a	1
455.596	0.599993197	MANHOOD	lure	n/a	n/a	n/a	1
456.196	0.516661452	ROYALE	lure	n/a	n/a	n/a	1
456.712	0.516701582	SHIPYARD	lure	n/a	n/a	n/a	1
457.229	0.483281014	GUIDANCE	lure	n/a	n/a	n/a	1
457.712	0.366661664	SEABIRD	lure	n/a	n/a	n/a	1
458.079	0.633384281	ARTERY	lure	n/a	n/a	n/a	1
458.712	0.383269728	ADVICE	lure	n/a	n/a	n/a	1
459.096	0.316660423	IMMUNITY	lure	n/a	n/a	n/a	1
459.412	0.649992765	IMPAIRMENT	lure	n/a	n/a	n/a	1
460.062	0.499993343	PRISM	lure	n/a	n/a	n/a	1
460.562	0.533382557	CARTRIDGE	lure	n/a	n/a	n/a	1
461.096	0.699932617	NUISANCE	lure	n/a	n/a	n/a	1
461.796	0.350037625	CARDIOGRAM	lure	n/a	n/a	n/a	1
462.146	0.566673371	RECEPTION	lure	n/a	n/a	n/a	1
462.712	0.816591668	LETDOWN	lure	n/a	n/a	n/a	1
463.529	0.449996909	ASSAILANT	lure	n/a	n/a	n/a	1
463.979	0.633328517	ALGEBRA	lure	n/a	n/a	n/a	1
464.612	n/a	BASELINE	lure	n/a	n/a	n/a	1