onset	duration	stim	cond	resp	acc	RT
4.051	0.58	MINUTE	lure	n/a	1	n/a
4.648	0.52	STORY	lure	n/a	1	n/a
5.182	0.438	HOPSCOTCH	lure	n/a	1	n/a
5.632	0.592	PANEL	lure	n/a	1	n/a
6.232	0.38	SANDALWOOD	lure	n/a	1	n/a
6.632	0.708	OPTIMISM	lure	n/a	1	n/a
7.352	0.648	STIPEND	lure	n/a	1	n/a
8.015	0.501	CAPTIVITY	lure	n/a	1	n/a
8.532	0.602	LAKE	short	n/a	1	n/a
9.148	0.442	HARPIST	lure	n/a	1	n/a
9.598	0.359	REALM	lure	n/a	1	n/a
9.965	0.423	PAYROLL	lure	n/a	1	n/a
10.398	0.37	STORAGE	lure	n/a	1	n/a
10.782	0.71	FESTIVAL	lure	n/a	1	n/a
11.498	0.448	FLUTE	lure	n/a	1	n/a
11.965	0.426	FLOATER	lure	n/a	1	n/a
12.398	0.716	LID	lure	n/a	1	n/a
13.132	0.609	OSTEOPATHY	lure	n/a	1	n/a
13.748	0.466	BROADSWORD	lure	n/a	1	n/a
14.298	0.657	DIRECTION	lure	n/a	1	n/a
14.967	0.44	BUREAU	lure	n/a	1	n/a
15.415	0.552	SEASON	lure	n/a	1	n/a
15.982	0.415	SOOT	lure	n/a	1	n/a
16.415	0.322	DRAWBRIDGE	lure	n/a	1	n/a
16.748	0.442	DIALECTIC	lure	n/a	1	n/a
17.198	0.802	STERLING	lure	n/a	1	n/a
18.015	0.503	OUTHOUSE	lure	n/a	1	n/a
18.532	2.001	PISTOL	long	n/a	1	n/a
20.548	0.497	HABITAT	lure	n/a	1	n/a
21.065	0.719	MOUTHPIECE	lure	n/a	1	n/a
21.798	0.679	CROCK	lure	n/a	1	n/a
22.482	0.603	NECKLINE	lure	n/a	1	n/a
23.098	0.741	MIRAGE	lure	n/a	1	n/a
23.865	0.451	CONJUNCT	lure	n/a	1	n/a
24.332	0.496	SIRLOIN	lure	n/a	1	n/a
24.832	0.454	CASUALTY	lure	n/a	1	n/a
25.298	0.701	DRIFTWOOD	lure	n/a	1	n/a
26.015	0.502	CATARACT	lure	n/a	1	n/a
26.531	2.002	STADIUM	long	n/a	1	n/a
28.619	0.549	RESISTOR	lure	n/a	1	n/a
29.181	0.392	HEMISPHERE	lure	n/a	1	n/a
29.581	0.49	SCANDAL	lure	n/a	1	n/a
30.081	0.674	EMBARGO	lure	n/a	1	n/a
30.765	0.477	NONSMOKER	lure	n/a	1	n/a
31.248	0.651	LION	lure	n/a	1	n/a
31.915	0.56	DEPENDENCE	lure	n/a	1	n/a
32.481	0.473	FAIRWAY	lure	n/a	1	n/a
32.965	0.426	BOBCAT	lure	n/a	1	n/a
33.398	0.601	EXPOSURE	lure	n/a	1	n/a
34.015	0.503	PROBLEM	lure	n/a	1	n/a
34.531	0.603	BRIDGE	short	n/a	1	n/a
35.148	0.403	PERSONAGE	lure	n/a	1	n/a
35.565	0.728	KIDNEY	lure	n/a	1	n/a
36.298	0.462	CHARITY	lure	n/a	1	n/a
36.765	0.556	IMPOSTURE	lure	n/a	1	n/a
37.331	0.532	NORMALITY	lure	n/a	1	n/a
37.881	0.586	MANDIBLE	lure	n/a	1	n/a
38.481	0.4	COMMODORE	lure	n/a	1	n/a
38.898	0.444	HUBBY	lure	n/a	1	n/a
39.415	0.408	FIXATION	lure	n/a	1	n/a
39.831	0.627	BACHELOR	lure	n/a	1	n/a
40.465	0.523	CANDY	lure	n/a	1	n/a
40.998	0.751	ALUMNI	lure	n/a	1	n/a
41.765	0.235	SEAHORSE	lure	n/a	1	n/a
42.015	0.502	BROOMSTICK	lure	n/a	1	n/a
42.531	0.602	BUCKET	short	n/a	1	n/a
43.148	0.599	FOLLICLE	lure	n/a	1	n/a
43.765	0.459	BELLHOP	lure	n/a	1	n/a
44.231	0.419	DEN	lure	n/a	1	n/a
44.665	0.496	ANALYZER	lure	n/a	1	n/a
45.165	0.358	POLO	lure	n/a	1	n/a
45.531	0.465	MATURATION	lure	n/a	1	n/a
46.015	0.368	PIGPEN	lure	n/a	1	n/a
46.398	0.379	SAKE	lure	n/a	1	n/a
46.781	0.451	AMNESTY	lure	n/a	1	n/a
47.248	0.514	ANATOMY	lure	n/a	1	n/a
47.781	0.57	INFIELDER	lure	n/a	1	n/a
48.365	0.639	GASP	lure	n/a	1	n/a
49.015	0.747	MANICURE	lure	n/a	1	n/a
49.848	0.524	PODIUM	lure	n/a	1	n/a
50.381	0.451	PERMIT	lure	n/a	1	n/a
50.848	0.346	INTERLINK	lure	n/a	1	n/a
51.198	0.451	SUBURB	lure	n/a	1	n/a
51.664	0.623	LOOTER	lure	n/a	1	n/a
52.298	0.46	FORGERY	lure	n/a	1	n/a
52.764	0.6	DIVINATION	lure	n/a	1	n/a
53.381	0.611	CROPPER	lure	n/a	1	n/a
53.998	0.501	GRIMACE	lure	n/a	1	n/a
54.514	2.003	GALLON	long	n/a	1	n/a
56.531	0.589	GNAT	lure	n/a	1	n/a
57.131	0.342	INEPTITUDE	lure	n/a	1	n/a
57.481	0.451	RITUAL	lure	n/a	1	n/a
57.948	0.589	FIRTH	lure	n/a	1	n/a
58.548	0.721	FACULTY	lure	n/a	1	n/a
59.281	0.592	EGGPLANT	lure	n/a	1	n/a
59.884	0.114	CHLORIDE	lure	n/a	1	n/a
60.014	0.502	CROWBAR	lure	n/a	1	n/a
60.531	1.005	STRAWBERRY	fruit	detect	1	763
61.548	0.461	FLUKE	lure	n/a	1	n/a
62.081	0.66	VOYAGER	lure	n/a	1	n/a
62.748	0.503	TAXONOMY	lure	n/a	1	n/a
63.264	0.624	STEPSISTER	lure	n/a	1	n/a
63.898	0.698	LEUKEMIA	lure	n/a	1	n/a
64.614	0.589	MIRACLE	lure	n/a	1	n/a
65.214	0.512	EYEFUL	lure	n/a	1	n/a
65.731	0.355	ALLEYWAY	lure	n/a	1	n/a
66.099	0.375	STOPOVER	lure	n/a	1	n/a
66.485	0.326	BOWSTRING	lure	n/a	1	n/a
66.814	0.394	SHOPKEEPER	lure	n/a	1	n/a
67.214	0.68	EFFICACY	lure	n/a	1	n/a
67.898	0.473	UNDERLAY	lure	n/a	1	n/a
68.381	0.386	FIRESIDE	lure	n/a	1	n/a
68.781	0.394	STRENGTH	lure	n/a	1	n/a
69.181	0.533	FANTASIA	lure	n/a	1	n/a
69.731	0.382	PARENTHOOD	lure	n/a	1	n/a
70.131	0.466	EARACHE	lure	n/a	1	n/a
70.614	0.421	POWERHOUSE	lure	n/a	1	n/a
71.048	0.688	PROMINENCE	lure	n/a	1	n/a
71.748	0.244	CABINET	lure	n/a	1	n/a
72.081	0.502	INFUSION	lure	n/a	1	n/a
72.598	1.004	GRAPE	fruit	detect	1	880
73.614	0.591	SUNBONNET	lure	n/a	1	n/a
74.214	0.414	INDUCTION	lure	n/a	1	n/a
74.647	0.476	TON	lure	n/a	1	n/a
75.131	0.405	DEPUTY	lure	n/a	1	n/a
75.548	0.572	CROQUET	lure	n/a	1	n/a
76.132	0.528	EDDY	lure	n/a	1	n/a
76.664	0.366	OMELETTE	lure	n/a	1	n/a
77.047	0.373	COLORATION	lure	n/a	1	n/a
77.431	0.51	EMULATION	lure	n/a	1	n/a
77.947	0.644	PENn/aT	lure	n/a	1	n/a
78.597	0.639	PHRASEBOOK	lure	n/a	1	n/a
79.247	0.642	MATURITY	lure	n/a	1	n/a
79.897	0.667	SUMMATION	lure	n/a	1	n/a
80.581	0.642	HOVERCRAFT	lure	n/a	1	n/a
81.231	0.351	ATMOSPHERE	lure	n/a	1	n/a
81.597	0.699	SEMICIRCLE	lure	n/a	1	n/a
82.314	0.556	FAREWELL	lure	n/a	1	n/a
82.882	0.541	SALUTATION	lure	n/a	1	n/a
83.497	0.333	DONKEY	lure	n/a	1	n/a
83.847	0.154	FIREBIRD	lure	n/a	1	n/a
84.014	0.502	WRIGHT	lure	n/a	1	n/a
84.531	2.002	CURTAIN	long	n/a	1	n/a
86.547	0.325	OUTRAGE	lure	n/a	1	n/a
86.881	0.615	ARTILLERY	lure	n/a	1	n/a
87.514	0.567	OVERSEER	lure	n/a	1	n/a
88.097	0.478	IMPLOSION	lure	n/a	1	n/a
88.581	0.737	URETHRA	lure	n/a	1	n/a
89.331	0.365	VIBRATION	lure	n/a	1	n/a
89.714	0.591	DOMINATION	lure	n/a	1	n/a
90.314	0.53	ARCHANGEL	lure	n/a	1	n/a
90.847	0.514	PIGSKIN	lure	n/a	1	n/a
91.364	0.391	ANEMIA	lure	n/a	1	n/a
91.764	0.716	CHOCOLATE	lure	n/a	1	n/a
92.497	0.38	RANCHER	lure	n/a	1	n/a
92.881	0.601	PLAYPEN	lure	n/a	1	n/a
93.497	0.493	NATURISM	lure	n/a	1	n/a
93.997	0.502	GREASER	lure	n/a	1	n/a
94.514	0.603	COAL	short	n/a	1	n/a
95.197	0.619	MOWER	lure	n/a	1	n/a
95.831	0.661	BULLDOZER	lure	n/a	1	n/a
96.497	0.475	PROPRIETY	lure	n/a	1	n/a
96.981	0.312	FRATERNITY	lure	n/a	1	n/a
97.297	0.437	PRINTOUT	lure	n/a	1	n/a
97.747	0.73	INSTIGATOR	lure	n/a	1	n/a
98.48	0.698	OUTCAST	lure	n/a	1	n/a
99.197	0.586	VESTMENT	lure	n/a	1	n/a
99.797	0.42	KITTY	lure	n/a	1	n/a
100.23	0.751	PERFUSION	lure	n/a	1	n/a
100.997	0.401	VELVET	lure	n/a	1	n/a
101.414	0.319	FEVER	lure	n/a	1	n/a
101.747	0.551	CONTAINER	lure	n/a	1	n/a
102.314	0.447	RESALE	lure	n/a	1	n/a
102.764	0.556	ALTITUDE	lure	n/a	1	n/a
103.332	0.66	HUMANKIND	lure	n/a	1	n/a
103.997	0.502	UTILITY	lure	n/a	1	n/a
104.514	2.001	GRAVEL	long	n/a	1	n/a
106.53	0.688	MOLEHILL	lure	n/a	1	n/a
107.23	0.401	POTBOILER	lure	n/a	1	n/a
107.717	0.591	RECTORY	lure	n/a	1	n/a
108.314	0.67	PILGRIMAGE	lure	n/a	1	n/a
108.997	0.586	DEMERIT	lure	n/a	1	n/a
109.597	0.335	DEXTERITY	lure	n/a	1	n/a
109.947	0.654	HEARSAY	lure	n/a	1	n/a
110.614	0.645	REGGAE	lure	n/a	1	n/a
111.264	0.554	BUYER	lure	n/a	1	n/a
111.83	0.449	TREMOR	lure	n/a	1	n/a
112.297	0.441	SCALPEL	lure	n/a	1	n/a
112.747	0.721	PREACHER	lure	n/a	1	n/a
113.48	0.513	BLACKBOARD	lure	n/a	1	n/a
113.997	0.5	CARPAL	lure	n/a	1	n/a
114.514	1.003	MULBERRY	fruit	detect	1	684
115.53	0.365	NORM	lure	n/a	1	n/a
115.914	0.44	CULT	lure	n/a	1	n/a
116.364	0.496	ADDRESSEE	lure	n/a	1	n/a
116.864	0.74	ALABASTER	lure	n/a	1	n/a
117.614	0.621	STOOGE	lure	n/a	1	n/a
118.247	0.493	STONEWORK	lure	n/a	1	n/a
118.752	0.651	PROTRACTOR	lure	n/a	1	n/a
119.48	0.564	AVALANCHE	lure	n/a	1	n/a
120.064	0.623	CONCEIT	lure	n/a	1	n/a
120.697	0.746	NUISANCE	lure	n/a	1	n/a
121.447	0.575	SEASCAPE	lure	n/a	1	n/a
122.033	0.446	BODYGUARD	lure	n/a	1	n/a
122.497	0.42	INNKEEPER	lure	n/a	1	n/a
122.93	0.344	GANDER	lure	n/a	1	n/a
123.28	0.5	REALISM	lure	n/a	1	n/a
123.797	0.489	PENNY	lure	n/a	1	n/a
124.297	0.556	ANNOTATION	lure	n/a	1	n/a
124.863	0.412	DATA	lure	n/a	1	n/a
125.28	0.361	FRIGHT	lure	n/a	1	n/a
125.647	0.377	SHOWPIECE	lure	n/a	1	n/a
126.03	0.393	TRANSPLANT	lure	n/a	1	n/a
126.43	0.733	HINDSIGHT	lure	n/a	1	n/a
127.18	0.676	TREATY	lure	n/a	1	n/a
127.863	0.518	FOOTBALL	lure	n/a	1	n/a
128.397	0.493	AVERSION	lure	n/a	1	n/a
128.897	0.636	NUTMEG	lure	n/a	1	n/a
129.547	0.445	POSTMASTER	lure	n/a	1	n/a
130.08	0.503	BEGINNER	lure	n/a	1	n/a
130.597	2.002	BRAKE	long	n/a	1	n/a
132.613	0.73	STOREFRONT	lure	n/a	1	n/a
133.347	0.512	PUMA	lure	n/a	1	n/a
133.863	0.493	WOODSHED	lure	n/a	1	n/a
134.363	0.654	OUTPOURING	lure	n/a	1	n/a
135.03	0.607	ASPIRATION	lure	n/a	1	n/a
135.649	0.343	GLEE	lure	n/a	1	n/a
135.997	0.502	RIBOFLAVIN	lure	n/a	1	n/a
136.513	0.603	PYRAMID	short	n/a	1	n/a
137.13	0.598	BASSINET	lure	n/a	1	n/a
137.747	0.487	SONG	lure	n/a	1	n/a
138.247	0.698	TICKER	lure	n/a	1	n/a
138.963	0.625	AGENCY	lure	n/a	1	n/a
139.6	0.366	BLOTTER	lure	n/a	1	n/a
139.98	0.637	MISCONDUCT	lure	n/a	1	n/a
140.63	0.74	ASTRODOME	lure	n/a	1	n/a
141.38	0.412	PARLIAMENT	lure	n/a	1	n/a
141.797	0.738	SKILLET	lure	n/a	1	n/a
142.547	0.699	LONGSHIP	lure	n/a	1	n/a
143.334	0.602	HESITATION	lure	n/a	1	n/a
143.947	0.336	SILK	lure	n/a	1	n/a
144.297	0.511	MIDPOINT	lure	n/a	1	n/a
144.813	0.725	RELATION	lure	n/a	1	n/a
145.547	0.445	DOGMATISM	lure	n/a	1	n/a
145.997	0.502	BLOWHOLE	lure	n/a	1	n/a
146.513	0.603	TICKET	short	n/a	1	n/a
147.13	0.677	FLAGSTAFF	lure	n/a	1	n/a
147.813	0.711	DISCOVERY	lure	n/a	1	n/a
148.53	0.429	ASTRONAUT	lure	n/a	1	n/a
148.963	0.463	TORTOISE	lure	n/a	1	n/a
149.43	0.682	LAWYER	lure	n/a	1	n/a
150.13	0.612	MANSION	lure	n/a	1	n/a
150.746	0.342	RECOURSE	lure	n/a	1	n/a
151.096	0.73	THRIFT	lure	n/a	1	n/a
151.83	0.33	REPTILE	lure	n/a	1	n/a
152.163	0.696	MOUSE	lure	n/a	1	n/a
152.863	0.496	MILLENNIA	lure	n/a	1	n/a
153.363	0.616	BURLAP	lure	n/a	1	n/a
153.996	0.7	BULLRING	lure	n/a	1	n/a
154.78	0.428	NEWSFLASH	lure	n/a	1	n/a
155.213	0.779	TONIC	lure	n/a	1	n/a
155.996	0.502	FIGURINE	lure	n/a	1	n/a
156.513	1.001	RASPBERRY	fruit	detect	1	749
157.53	0.312	SANCTIMONY	lure	n/a	1	n/a
157.846	0.54	NURSERY	lure	n/a	1	n/a
158.396	0.4	OVERLAP	lure	n/a	1	n/a
158.813	0.43	MANGER	lure	n/a	1	n/a
159.246	0.456	TRIBUNE	lure	n/a	1	n/a
159.713	0.501	CALFSKIN	lure	n/a	1	n/a
160.23	0.465	SUBSTRATE	lure	n/a	1	n/a
160.713	0.331	PUNISHMENT	lure	n/a	1	n/a
161.063	0.449	FLOOZY	lure	n/a	1	n/a
161.53	0.705	ADJUSTMENT	lure	n/a	1	n/a
162.246	0.614	PROCURATOR	lure	n/a	1	n/a
162.863	0.333	COUNCILMAN	lure	n/a	1	n/a
163.213	0.437	ICEHOUSE	lure	n/a	1	n/a
163.663	0.366	APPETITE	lure	n/a	1	n/a
164.046	0.352	DRESSER	lure	n/a	1	n/a
164.413	0.406	RETINA	lure	n/a	1	n/a
164.896	0.363	ACME	lure	n/a	1	n/a
165.263	0.377	INDENTURE	lure	n/a	1	n/a
165.646	0.691	DECOR	lure	n/a	1	n/a
166.346	0.304	CAPTOR	lure	n/a	1	n/a
166.663	0.713	COHESION	lure	n/a	1	n/a
167.38	0.458	CLUBHOUSE	lure	n/a	1	n/a
167.849	0.434	METEORITE	lure	n/a	1	n/a
168.296	0.662	POMP	lure	n/a	1	n/a
168.963	0.624	PANDA	lure	n/a	1	n/a
169.599	0.392	BUTTERNUT	lure	n/a	1	n/a
169.996	0.502	MODE	lure	n/a	1	n/a
170.513	2.001	ORNAMENT	long	n/a	1	n/a
172.529	0.736	IMMOBILITY	lure	n/a	1	n/a
173.279	0.683	BLACKSMITH	lure	n/a	1	n/a
173.979	0.428	REPAYMENT	lure	n/a	1	n/a
174.413	0.535	BOUTIQUE	lure	n/a	1	n/a
174.963	0.505	POSER	lure	n/a	1	n/a
175.479	0.512	GOALKEEPER	lure	n/a	1	n/a
175.996	0.502	COMMANDO	lure	n/a	1	n/a
176.513	2.002	PUPPET	long	n/a	1	n/a
178.596	0.664	SPOUSE	lure	n/a	1	n/a
179.279	0.519	DISCOVERER	lure	n/a	1	n/a
179.813	0.394	SYSTEM	lure	n/a	1	n/a
180.213	0.628	SUSPENSION	lure	n/a	1	n/a
180.846	0.379	CHAUVINIST	lure	n/a	1	n/a
181.229	0.532	FOOTWORK	lure	n/a	1	n/a
181.779	0.521	COUSIN	lure	n/a	1	n/a
182.313	0.5	LAYOFF	lure	n/a	1	n/a
182.829	0.649	BACKBOARD	lure	n/a	1	n/a
183.496	0.497	SEDITION	lure	n/a	1	n/a
184.013	0.502	WOODCRAFT	lure	n/a	1	n/a
184.529	1.001	LIME	fruit	detect	1	956
185.546	0.365	ALMOND	lure	n/a	1	n/a
185.929	0.635	KERCHIEF	lure	n/a	1	n/a
186.579	0.602	JUDGMENT	lure	n/a	1	n/a
187.196	0.505	CRUCIBLE	lure	n/a	1	n/a
187.713	0.314	DISCORD	lure	n/a	1	n/a
188.029	0.5	DECIBEL	lure	n/a	1	n/a
188.546	0.524	SLIPPER	lure	n/a	1	n/a
189.082	0.312	URBANISM	lure	n/a	1	n/a
189.482	0.356	EMPLOYER	lure	n/a	1	n/a
189.846	0.531	MNEMONIC	lure	n/a	1	n/a
190.396	0.5	FLANNEL	lure	n/a	1	n/a
190.913	0.517	POPPER	lure	n/a	1	n/a
191.446	0.717	SHOWGIRL	lure	n/a	1	n/a
192.179	0.528	RUDDER	lure	n/a	1	n/a
192.713	0.542	NATION	lure	n/a	1	n/a
193.263	0.447	SCHOOLROOM	lure	n/a	1	n/a
193.713	0.431	MOCKERY	lure	n/a	1	n/a
194.163	0.494	INFIRMITY	lure	n/a	1	n/a
194.663	0.36	HANDBRAKE	lure	n/a	1	n/a
195.029	0.479	LASSIE	lure	n/a	1	n/a
195.513	0.56	PARCHMENT	lure	n/a	1	n/a
196.079	0.698	CRAFTSMEN	lure	n/a	1	n/a
196.796	0.429	HOOCH	lure	n/a	1	n/a
197.229	0.764	EXPECTANCY	lure	n/a	1	n/a
198.012	0.503	HEXAGON	lure	n/a	1	n/a
198.529	1.001	KIWI	fruit	detect	1	821
199.546	0.625	HERNIA	lure	n/a	1	n/a
200.179	0.44	ESCAPEE	lure	n/a	1	n/a
200.712	0.43	NUMEROLOGY	lure	n/a	1	n/a
201.146	0.644	DESERTION	lure	n/a	1	n/a
201.796	0.395	SCRUFF	lure	n/a	1	n/a
202.196	0.453	FLAGELLA	lure	n/a	1	n/a
202.662	0.327	COLONIST	lure	n/a	1	n/a
203	0.309	EXEMPTION	lure	n/a	1	n/a
203.312	0.417	SHORELINE	lure	n/a	1	n/a
203.746	0.333	INADEQUACY	lure	n/a	1	n/a
204.096	0.658	SALMON	lure	n/a	1	n/a
204.762	0.743	TABLOID	lure	n/a	1	n/a
205.512	0.582	ENDURANCE	lure	n/a	1	n/a
206.112	0.314	BOBTAIL	lure	n/a	1	n/a
206.429	0.434	TREADMILL	lure	n/a	1	n/a
206.879	0.613	CONQUEROR	lure	n/a	1	n/a
207.496	0.433	HATCHBACK	lure	n/a	1	n/a
207.946	0.704	EQUATOR	lure	n/a	1	n/a
208.662	0.709	TESTICLE	lure	n/a	1	n/a
209.383	0.57	WINDOWPANE	lure	n/a	1	n/a
209.962	0.582	SEAWAY	lure	n/a	1	n/a
210.562	0.584	WOODMAN	lure	n/a	1	n/a
211.229	0.764	VEAL	lure	n/a	1	n/a
212.012	0.503	FATALISM	lure	n/a	1	n/a
212.529	0.602	BANNER	short	n/a	1	n/a
213.146	0.667	CHARADE	lure	n/a	1	n/a
213.829	0.466	OWNSELF	lure	n/a	1	n/a
214.312	0.375	CRYBABY	lure	n/a	1	n/a
214.696	0.6	CASEWORK	lure	n/a	1	n/a
215.312	0.627	BUNNY	lure	n/a	1	n/a
215.946	0.561	BOOKLET	lure	n/a	1	n/a
216.512	0.395	CONGRUENCE	lure	n/a	1	n/a
216.912	0.719	VERNACULAR	lure	n/a	1	n/a
217.646	0.702	LAYOUT	lure	n/a	1	n/a
218.362	0.593	AUDIENCE	lure	n/a	1	n/a
218.966	0.639	BURNSIDE	lure	n/a	1	n/a
219.612	0.381	GLIMPSE	lure	n/a	1	n/a
220.012	0.502	OXIDATION	lure	n/a	1	n/a
220.529	2.003	CHALK	long	n/a	1	n/a
222.545	0.746	DEPARTMENT	lure	n/a	1	n/a
223.295	0.458	EMOTION	lure	n/a	1	n/a
223.762	0.397	BROW	lure	n/a	1	n/a
224.246	0.345	EMBOLISM	lure	n/a	1	n/a
224.595	0.311	CHURCH	lure	n/a	1	n/a
224.912	0.352	PAMPHLET	lure	n/a	1	n/a
225.279	0.343	AWNING	lure	n/a	1	n/a
225.629	0.365	SIDECAR	lure	n/a	1	n/a
226.012	0.414	MEDIC	lure	n/a	1	n/a
226.445	0.666	PEACOCK	lure	n/a	1	n/a
227.129	0.657	STREAKER	lure	n/a	1	n/a
227.795	0.376	WAISTBAND	lure	n/a	1	n/a
228.179	0.386	ADORNMENT	lure	n/a	1	n/a
228.579	0.749	MADMEN	lure	n/a	1	n/a
229.345	0.645	CREDITOR	lure	n/a	1	n/a
229.995	0.501	BATTERY	lure	n/a	1	n/a
230.512	0.603	PIN	short	n/a	1	n/a
231.129	0.454	DIRECTORY	lure	n/a	1	n/a
231.595	0.306	JAMBOREE	lure	n/a	1	n/a
231.913	0.318	GEOGRAPHY	lure	n/a	1	n/a
232.245	0.747	RESTAURANT	lure	n/a	1	n/a
232.995	0.523	GIFT	lure	n/a	1	n/a
233.529	0.348	EXTINCTION	lure	n/a	1	n/a
233.962	0.584	COLA	lure	n/a	1	n/a
234.562	0.607	ALBINO	lure	n/a	1	n/a
235.181	0.356	RIVERBANK	lure	n/a	1	n/a
235.549	0.649	PEASANT	lure	n/a	1	n/a
236.212	0.314	NERVE	lure	n/a	1	n/a
236.545	0.715	EXCITEMENT	lure	n/a	1	n/a
237.279	0.714	EASTERNER	lure	n/a	1	n/a
238.012	0.502	BUCCANEER	lure	n/a	1	n/a
238.529	2.003	MAZE	long	n/a	1	n/a
240.545	0.658	RECEPTACLE	lure	n/a	1	n/a
241.212	0.663	PESSIMISM	lure	n/a	1	n/a
241.879	0.639	BARKER	lure	n/a	1	n/a
242.53	0.495	ANKLET	lure	n/a	1	n/a
243.029	0.366	HOMESTEAD	lure	n/a	1	n/a
243.412	0.705	NECKBAND	lure	n/a	1	n/a
244.129	0.461	CEREMONY	lure	n/a	1	n/a
244.595	0.514	DEADLINE	lure	n/a	1	n/a
245.129	0.863	SPLOTCH	lure	n/a	1	n/a
245.995	0.502	AUTHORITY	lure	n/a	1	n/a
246.512	0.602	SPARK	short	n/a	1	n/a
247.195	0.405	BADGE	lure	n/a	1	n/a
247.612	0.472	JIGSAW	lure	n/a	1	n/a
248.095	0.363	FLOODGATE	lure	n/a	1	n/a
248.462	0.576	HIPPO	lure	n/a	1	n/a
249.045	0.477	CRIME	lure	n/a	1	n/a
249.528	0.393	SOLITAIRE	lure	n/a	1	n/a
249.928	0.642	QUOTIENT	lure	n/a	1	n/a
250.578	0.412	MARROW	lure	n/a	1	n/a
250.995	0.397	ALIBI	lure	n/a	1	n/a
251.395	0.51	COWBELL	lure	n/a	1	n/a
251.912	0.691	BOW	lure	n/a	1	n/a
252.615	0.609	SLEEPYHEAD	lure	n/a	1	n/a
253.228	0.362	ADJUNCT	lure	n/a	1	n/a
253.595	0.396	DIFFERENCE	lure	n/a	1	n/a
253.995	0.501	ACCESSORY	lure	n/a	1	n/a
254.512	0.602	LEAF	short	n/a	1	n/a
255.128	0.689	NAUGHT	lure	n/a	1	n/a
255.829	0.74	POSSESSION	lure	n/a	1	n/a
256.581	0.556	EXTRUSION	lure	n/a	1	n/a
257.148	0.533	SLEEPER	lure	n/a	1	n/a
257.762	0.492	AVENUE	lure	n/a	1	n/a
258.262	0.707	TEMPLE	lure	n/a	1	n/a
258.978	0.507	BONSAI	lure	n/a	1	n/a
259.495	0.375	WARE	lure	n/a	1	n/a
259.878	0.563	DUCKBILL	lure	n/a	1	n/a
260.445	0.34	EMPIRICISM	lure	n/a	1	n/a
260.797	0.656	REGIMEN	lure	n/a	1	n/a
261.462	0.512	ROULETTE	lure	n/a	1	n/a
261.978	0.309	SILHOUETTE	lure	n/a	1	n/a
262.295	0.632	REBELLION	lure	n/a	1	n/a
262.945	0.556	PATROLMAN	lure	n/a	1	n/a
263.512	0.549	FIST	lure	n/a	1	n/a
264.078	0.586	BRAVADO	lure	n/a	1	n/a
264.678	0.693	NEUTRALITY	lure	n/a	1	n/a
265.378	0.539	APRON	lure	n/a	1	n/a
265.928	0.591	LINKAGE	lure	n/a	1	n/a
266.528	0.6	LATTER	lure	n/a	1	n/a
267.145	0.743	RETAILER	lure	n/a	1	n/a
267.895	0.594	VAGABOND	lure	n/a	1	n/a
268.495	0.661	MOTHBALL	lure	n/a	1	n/a
269.245	0.559	GILL	lure	n/a	1	n/a
269.812	0.406	THORN	lure	n/a	1	n/a
270.229	0.613	NECKLACE	lure	n/a	1	n/a
270.845	0.68	GOVERNOR	lure	n/a	1	n/a
281.411	0.339	LOVEBIRD	lure	n/a	1	n/a
281.762	0.351	WHISPERER	lure	n/a	1	n/a
282.128	0.452	BALM	lure	n/a	1	n/a
282.595	0.672	IMPORT	lure	n/a	1	n/a
283.278	0.445	GUZZLER	lure	n/a	1	n/a
283.728	0.646	INTENT	lure	n/a	1	n/a
284.378	0.608	INITIATION	lure	n/a	1	n/a
284.999	0.403	CLAUSE	lure	n/a	1	n/a
285.414	0.329	ORGAN	lure	n/a	1	n/a
285.761	0.679	PARSON	lure	n/a	1	n/a
286.445	0.484	SIMPLICITY	lure	n/a	1	n/a
286.945	1.04	MAYHEM	lure	n/a	1	n/a
287.995	0.503	VOCALIST	lure	n/a	1	n/a
288.511	2.003	MAZE	long	n/a	1	n/a
290.528	0.546	BAPTISM	lure	n/a	1	n/a
291.078	0.659	SKYLIGHT	lure	n/a	1	n/a
291.811	0.429	WIGHT	lure	n/a	1	n/a
292.245	0.575	CESSATION	lure	n/a	1	n/a
292.828	0.557	HOPPER	lure	n/a	1	n/a
293.397	0.424	LITERALISM	lure	n/a	1	n/a
293.828	0.683	ROADBLOCK	lure	n/a	1	n/a
294.528	0.515	TACT	lure	n/a	1	n/a
295.061	0.498	EYEPIECE	lure	n/a	1	n/a
295.578	0.405	SPINE	lure	n/a	1	n/a
295.994	0.503	LAGOON	lure	n/a	1	n/a
296.511	2.003	GALLON	long	n/a	1	n/a
298.528	0.738	AIRSTRIP	lure	n/a	1	n/a
299.278	0.707	COWHERD	lure	n/a	1	n/a
299.994	0.501	CAPITALISM	lure	n/a	1	n/a
300.511	1.002	PEAR	fruit	n/a	0	n/a
301.528	0.681	WREATH	lure	detect	0	126
302.228	0.533	TEXTBOOK	lure	n/a	1	n/a
302.778	0.675	PRESIDENCY	lure	n/a	1	n/a
303.461	0.433	COMPOSITOR	lure	n/a	1	n/a
303.911	0.571	GRANDCHILD	lure	n/a	1	n/a
304.494	0.684	BOROUGH	lure	n/a	1	n/a
305.261	0.447	RAZOR	lure	n/a	1	n/a
305.711	0.608	CONSCIENCE	lure	n/a	1	n/a
306.328	0.347	IMBECILE	lure	n/a	1	n/a
306.678	0.337	SQUAD	lure	n/a	1	n/a
307.028	0.515	WINE	lure	n/a	1	n/a
307.561	0.376	INCITEMENT	lure	n/a	1	n/a
307.944	0.439	INVOCATION	lure	n/a	1	n/a
308.394	0.5	CHAPTER	lure	n/a	1	n/a
308.911	0.51	DILEMMA	lure	n/a	1	n/a
309.428	0.555	DOMIn/aCE	lure	n/a	1	n/a
309.994	0.502	BONBON	lure	n/a	1	n/a
310.511	0.602	SPARK	short	n/a	1	n/a
311.128	0.736	BEAKER	lure	n/a	1	n/a
311.878	0.742	PUTTY	lure	n/a	1	n/a
312.628	0.464	TECHNOLOGY	lure	n/a	1	n/a
313.111	0.496	BOOKMARK	lure	n/a	1	n/a
313.611	0.404	EYELID	lure	n/a	1	n/a
314.028	0.382	MANIAC	lure	n/a	1	n/a
314.428	0.42	MISTER	lure	n/a	1	n/a
314.861	0.362	MOTIF	lure	n/a	1	n/a
315.311	0.384	SUNLAMP	lure	n/a	1	n/a
315.711	0.58	HERB	lure	n/a	1	n/a
316.311	0.688	DINNER	lure	n/a	1	n/a
317.011	0.41	QUACKERY	lure	n/a	1	n/a
317.428	0.735	MOUNTAIN	lure	n/a	1	n/a
318.178	0.59	THERAPIST	lure	n/a	1	n/a
318.777	0.372	WEREWOLF	lure	n/a	1	n/a
319.161	0.402	VERTEX	lure	n/a	1	n/a
319.577	0.684	HUSK	lure	n/a	1	n/a
320.282	0.69	AUTOPSY	lure	n/a	1	n/a
320.978	0.753	DOWNTURN	lure	n/a	1	n/a
321.744	0.24	OIL	lure	n/a	1	n/a
321.994	0.503	ULCERATION	lure	n/a	1	n/a
322.511	1.003	LIME	fruit	detect	1	823
323.527	0.695	CONVOY	lure	n/a	1	n/a
324.227	0.429	RHYTHM	lure	n/a	1	n/a
324.661	0.598	NYLON	lure	n/a	1	n/a
325.277	0.621	PARODY	lure	n/a	1	n/a
325.911	0.345	MATRIMONY	lure	n/a	1	n/a
326.261	0.482	CHICKWEED	lure	n/a	1	n/a
326.831	0.481	TENT	lure	n/a	1	n/a
327.327	0.705	WATCHBAND	lure	n/a	1	n/a
328.044	0.624	NONDRIVER	lure	n/a	1	n/a
328.677	0.691	EASEL	lure	n/a	1	n/a
329.377	0.664	ATTRIBUTE	lure	n/a	1	n/a
330.061	0.679	EVASION	lure	n/a	1	n/a
330.744	0.362	BENEFACTOR	lure	n/a	1	n/a
331.111	0.707	DENTURE	lure	n/a	1	n/a
331.827	0.343	THUMBTACK	lure	n/a	1	n/a
332.177	0.329	GIRDLE	lure	n/a	1	n/a
332.511	0.616	INFORMANT	lure	n/a	1	n/a
333.144	0.712	NOVA	lure	n/a	1	n/a
333.861	0.482	JANITOR	lure	n/a	1	n/a
334.361	0.614	STAIRWAY	lure	n/a	1	n/a
334.994	0.338	RIM	lure	n/a	1	n/a
335.344	0.468	LATENCY	lure	n/a	1	n/a
335.827	0.359	COFFEEPOT	lure	n/a	1	n/a
336.194	0.324	KIN	lure	n/a	1	n/a
336.527	0.639	OUTAGE	lure	n/a	1	n/a
337.177	0.807	RETRIEVER	lure	n/a	1	n/a
338.061	0.503	ARCHDUKE	lure	n/a	1	n/a
338.577	2.001	ORNAMENT	long	n/a	1	n/a
340.594	0.338	CRUISER	lure	n/a	1	n/a
340.944	0.454	GIRLFRIEND	lure	n/a	1	n/a
341.411	0.421	DISHONESTY	lure	n/a	1	n/a
341.844	0.621	LIBRARY	lure	n/a	1	n/a
342.477	0.674	PEANUT	lure	n/a	1	n/a
343.161	0.408	POPCORN	lure	n/a	1	n/a
343.58	0.675	CUBICLE	lure	n/a	1	n/a
344.26	0.339	MANPOWER	lure	n/a	1	n/a
344.61	0.629	MEMBERSHIP	lure	n/a	1	n/a
345.244	0.74	NAPE	lure	n/a	1	n/a
345.994	0.503	SNOWDRIFT	lure	n/a	1	n/a
346.51	1.002	LEMON	fruit	n/a	0	n/a
347.527	0.702	MINELAYER	lure	n/a	1	n/a
348.244	0.389	COYOTE	lure	n/a	1	n/a
348.644	0.69	GAMEKEEPER	lure	n/a	1	n/a
349.344	0.56	VOUCHER	lure	n/a	1	n/a
349.91	0.695	DOSAGE	lure	n/a	1	n/a
350.61	0.66	JAY	lure	n/a	1	n/a
351.36	0.451	AIRMEN	lure	n/a	1	n/a
351.827	0.433	MONUMENT	lure	n/a	1	n/a
352.277	0.368	ANYBODY	lure	n/a	1	n/a
352.66	0.531	IRRITATION	lure	n/a	1	n/a
353.21	0.574	CURBSIDE	lure	n/a	1	n/a
353.794	0.614	PROTEIN	lure	n/a	1	n/a
354.427	0.579	NITRATE	lure	n/a	1	n/a
355.01	0.368	EXPLORER	lure	n/a	1	n/a
355.394	0.535	HANDICRAFT	lure	n/a	1	n/a
355.944	0.53	STIGMA	lure	n/a	1	n/a
356.477	0.736	MOTHER	lure	n/a	1	n/a
357.227	0.437	SPEECH	lure	n/a	1	n/a
357.677	0.458	DIME	lure	n/a	1	n/a
358.144	0.719	DICTIONARY	lure	n/a	1	n/a
358.877	0.567	SOPHOMORE	lure	n/a	1	n/a
359.46	0.522	GOALPOST	lure	n/a	1	n/a
359.994	0.502	GATEHOUSE	lure	n/a	1	n/a
360.51	0.602	BRIDGE	short	n/a	1	n/a
361.127	0.729	ECONOMIST	lure	n/a	1	n/a
361.86	0.555	APPEARANCE	lure	n/a	1	n/a
362.494	0.349	MINER	lure	n/a	1	n/a
362.86	0.7	PUTTER	lure	n/a	1	n/a
363.577	0.46	NARCISSISM	lure	n/a	1	n/a
364.044	0.664	CARPENTRY	lure	n/a	1	n/a
364.727	0.47	STALEMATE	lure	n/a	1	n/a
365.21	0.412	DENOTATION	lure	n/a	1	n/a
365.627	0.559	REFORMER	lure	n/a	1	n/a
366.197	0.748	EMIGRATION	lure	n/a	1	n/a
366.96	1.025	FUNERAL	lure	n/a	1	n/a
367.993	0.502	MAT	lure	n/a	1	n/a
368.51	0.601	TICKET	short	n/a	1	n/a
369.127	0.354	TABLET	lure	n/a	1	n/a
369.493	0.547	BATON	lure	n/a	1	n/a
370.06	0.561	BEDSPREAD	lure	n/a	1	n/a
370.627	0.415	NIGHTHAWK	lure	n/a	1	n/a
371.06	0.338	CREAMERY	lure	n/a	1	n/a
371.41	0.435	PHONOLOGY	lure	n/a	1	n/a
371.86	0.693	PILLOW	lure	n/a	1	n/a
372.565	0.498	TAXATION	lure	n/a	1	n/a
373.077	0.44	MATRIX	lure	n/a	1	n/a
373.593	0.679	MONARCH	lure	n/a	1	n/a
374.277	0.352	IMMATURITY	lure	n/a	1	n/a
374.643	0.537	SNOB	lure	n/a	1	n/a
375.193	0.326	YOUNGSTER	lure	n/a	1	n/a
375.527	0.732	ROTISSERIE	lure	n/a	1	n/a
376.277	0.686	BADMINTON	lure	n/a	1	n/a
376.977	0.417	FLINTSTONE	lure	n/a	1	n/a
377.41	0.573	INDULGENCE	lure	n/a	1	n/a
377.993	0.502	CASEWORKER	lure	n/a	1	n/a
378.51	1.002	KIWI	fruit	detect	1	712
379.527	0.381	CHECKLIST	lure	n/a	1	n/a
379.927	0.642	NATIVITY	lure	n/a	1	n/a
380.577	0.647	AMPLITUDE	lure	n/a	1	n/a
381.243	0.543	HEATSTROKE	lure	n/a	1	n/a
381.793	0.656	DILATION	lure	n/a	1	n/a
382.46	0.675	DRIVER	lure	n/a	1	n/a
383.143	0.404	SALINE	lure	n/a	1	n/a
383.56	0.62	ASSORTMENT	lure	n/a	1	n/a
384.193	0.379	RETIREMENT	lure	n/a	1	n/a
384.577	0.41	SECT	lure	n/a	1	n/a
385.077	0.707	ETHICIST	lure	n/a	1	n/a
385.796	0.697	CARNIVORE	lure	n/a	1	n/a
386.51	0.34	TEn/aT	lure	n/a	1	n/a
386.86	0.535	LECTURER	lure	n/a	1	n/a
387.41	0.318	PARTICIPLE	lure	n/a	1	n/a
387.743	0.531	MOUSETRAP	lure	n/a	1	n/a
388.293	0.343	SENTRY	lure	n/a	1	n/a
388.66	0.608	MERINGUE	lure	n/a	1	n/a
389.277	0.417	POLYESTER	lure	n/a	1	n/a
389.71	0.718	CASTOR	lure	n/a	1	n/a
390.443	0.563	HOLDUP	lure	n/a	1	n/a
391.01	0.332	MEMORIAL	lure	n/a	1	n/a
391.36	0.588	INSURANCE	lure	n/a	1	n/a
391.96	0.691	INSOMNIA	lure	n/a	1	n/a
392.663	0.47	JAWBONE	lure	n/a	1	n/a
393.145	0.419	DELICACY	lure	n/a	1	n/a
393.576	0.408	OCTAGON	lure	n/a	1	n/a
394.01	0.502	SHIRT	lure	n/a	1	n/a
394.527	0.602	PIN	short	n/a	1	n/a
395.143	0.671	ROCKER	lure	n/a	1	n/a
395.893	0.421	CONTENT	lure	n/a	1	n/a
396.326	0.517	EMBODIMENT	lure	n/a	1	n/a
396.86	0.393	LADDIE	lure	n/a	1	n/a
397.26	0.428	SIERRA	lure	n/a	1	n/a
397.693	0.398	FARCE	lure	n/a	1	n/a
398.11	0.7	PROPRIETOR	lure	n/a	1	n/a
398.826	0.597	GENIE	lure	n/a	1	n/a
399.426	0.696	PALACE	lure	n/a	1	n/a
400.126	0.398	MENACE	lure	n/a	1	n/a
400.543	0.445	PRIVACY	lure	n/a	1	n/a
400.993	0.665	CIRCUIT	lure	n/a	1	n/a
401.676	0.373	BREAKAWAY	lure	n/a	1	n/a
402.06	0.608	ANALYST	lure	n/a	1	n/a
402.676	0.408	VAPIDITY	lure	n/a	1	n/a
403.093	0.572	INFIELD	lure	n/a	1	n/a
403.677	0.306	ANYONE	lure	n/a	1	n/a
404.01	0.503	COD	lure	n/a	1	n/a
404.526	2.001	STADIUM	long	n/a	1	n/a
406.543	0.477	CONVENTION	lure	n/a	1	n/a
407.026	0.375	TOMAHAWK	lure	n/a	1	n/a
407.476	0.417	HALL	lure	n/a	1	n/a
407.91	0.532	PRESCHOOL	lure	n/a	1	n/a
408.46	0.69	OWNER	lure	n/a	1	n/a
409.16	0.491	STRAGGLER	lure	n/a	1	n/a
409.66	0.575	PAYMASTER	lure	n/a	1	n/a
410.246	0.377	GAP	lure	n/a	1	n/a
410.626	0.698	LAYOVER	lure	n/a	1	n/a
411.343	0.642	VISAGE	lure	n/a	1	n/a
412.01	0.502	SUBSIDY	lure	n/a	1	n/a
412.526	0.603	PYRAMID	short	n/a	1	n/a
413.143	0.395	JELLY	lure	n/a	1	n/a
413.543	0.647	CITADEL	lure	n/a	1	n/a
414.193	0.424	ENVOY	lure	n/a	1	n/a
414.626	0.75	MUTATION	lure	n/a	1	n/a
415.393	0.379	BASKET	lure	n/a	1	n/a
415.776	0.593	HANDBALL	lure	n/a	1	n/a
416.376	0.709	PEPPERONI	lure	n/a	1	n/a
417.093	0.637	CHARISMA	lure	n/a	1	n/a
417.743	0.607	MURAL	lure	n/a	1	n/a
418.36	0.382	AUTO	lure	n/a	1	n/a
418.826	0.482	BREADCRUMB	lure	n/a	1	n/a
419.326	0.657	SPECTACLE	lure	n/a	1	n/a
420.009	0.503	MEMBER	lure	n/a	1	n/a
420.526	0.603	LAKE	short	n/a	1	n/a
421.143	0.494	LANDHOLDER	lure	n/a	1	n/a
421.643	0.683	NONSTARTER	lure	n/a	1	n/a
422.343	0.696	CROSSBAR	lure	n/a	1	n/a
423.043	0.682	OUTBREAK	lure	n/a	1	n/a
423.743	0.415	MARSH	lure	n/a	1	n/a
424.176	0.712	MAGNUM	lure	n/a	1	n/a
424.893	0.675	EMPLOYMENT	lure	n/a	1	n/a
425.579	0.667	LISTENER	lure	n/a	1	n/a
426.259	0.733	DIARY	lure	n/a	1	n/a
427.009	0.974	HUMANITY	lure	n/a	1	n/a
428.009	0.5	RECITATIVE	lure	n/a	1	n/a
428.526	2.001	GRAVEL	long	n/a	1	n/a
430.543	0.708	PESSIMIST	lure	n/a	1	n/a
431.259	0.471	HEARTBURN	lure	n/a	1	n/a
431.743	0.537	SURCHARGE	lure	n/a	1	n/a
432.293	0.551	EPIGRAM	lure	n/a	1	n/a
432.926	0.563	MATERNITY	lure	n/a	1	n/a
433.493	0.709	ADAPTER	lure	n/a	1	n/a
434.209	0.482	REPAST	lure	n/a	1	n/a
434.709	0.705	ACCIDENT	lure	n/a	1	n/a
435.426	0.558	SALESMEN	lure	n/a	1	n/a
436.009	0.503	EVOCATION	lure	n/a	1	n/a
436.526	0.603	BANNER	short	n/a	1	n/a
437.143	0.603	METHYL	lure	n/a	1	n/a
437.759	0.712	CURD	lure	n/a	1	n/a
438.476	0.593	DWELLER	lure	n/a	1	n/a
439.076	0.697	FORESIGHT	lure	n/a	1	n/a
439.776	0.598	VICEROY	lure	n/a	1	n/a
440.393	0.627	TRAVELLER	lure	n/a	1	n/a
441.026	0.522	PUB	lure	n/a	1	n/a
441.559	0.646	HANDSTAND	lure	n/a	1	n/a
442.209	0.475	CORKSCREW	lure	n/a	1	n/a
442.693	0.6	VOWEL	lure	n/a	1	n/a
443.309	0.421	ASSISTANT	lure	n/a	1	n/a
443.743	0.24	COUPE	lure	n/a	1	n/a
444.009	0.502	HEDONISM	lure	n/a	1	n/a
444.592	2.002	BRAKE	long	n/a	1	n/a
446.609	0.328	RADAR	lure	n/a	1	n/a
446.942	0.396	CRESCENT	lure	n/a	1	n/a
447.342	0.67	DEPORTMENT	lure	n/a	1	n/a
448.026	0.354	CREED	lure	n/a	1	n/a
448.392	0.391	HORROR	lure	n/a	1	n/a
448.792	0.723	WORKER	lure	n/a	1	n/a
449.527	0.528	MEDIA	lure	n/a	1	n/a
450.059	0.693	CONGESTION	lure	n/a	1	n/a
450.759	0.68	DIVINITY	lure	n/a	1	n/a
451.442	0.534	DROPLET	lure	n/a	1	n/a
451.992	0.502	CRAWLER	lure	n/a	1	n/a
452.509	2.001	PISTOL	long	n/a	1	n/a
454.526	0.565	CAMERA	lure	n/a	1	n/a
455.109	0.499	DUMBBELL	lure	n/a	1	n/a
455.626	0.381	STUPOR	lure	n/a	1	n/a
456.026	0.391	RETELLING	lure	n/a	1	n/a
456.426	0.491	BOAR	lure	n/a	1	n/a
456.926	0.531	SPINACH	lure	n/a	1	n/a
457.459	0.638	ENLISTMENT	lure	n/a	1	n/a
458.176	0.554	HEIGHT	lure	n/a	1	n/a
458.742	0.636	PROPAGANDA	lure	n/a	1	n/a
459.392	0.487	INJUSTICE	lure	n/a	1	n/a
459.892	0.091	SORCERER	lure	n/a	1	n/a
460.009	0.502	COMEDOWN	lure	n/a	1	n/a
460.526	2.001	PUPPET	long	n/a	1	n/a
462.542	0.493	MONOLOGIST	lure	n/a	1	n/a
463.042	0.682	TALC	lure	n/a	1	n/a
463.742	0.451	RITUALISM	lure	n/a	1	n/a
464.209	0.617	CLIQUE	lure	n/a	1	n/a
464.842	0.417	POLICEMEN	lure	n/a	1	n/a
465.276	0.509	HOSPITAL	lure	n/a	1	n/a
465.797	0.187	ENTERPRISE	lure	n/a	1	n/a
466.009	0.501	SANDAL	lure	n/a	1	n/a
466.525	1.001	LIME	fruit	n/a	0	n/a
467.542	0.554	AIRWAY	lure	detect	0	72
468.109	0.521	FROGMAN	lure	n/a	1	n/a
468.642	0.559	SUPPER	lure	n/a	1	n/a
469.209	0.61	GENTRY	lure	n/a	1	n/a
469.825	0.526	PROVISION	lure	n/a	1	n/a
470.442	0.433	ACTIVIST	lure	n/a	1	n/a
470.892	0.615	ILLITERACY	lure	n/a	1	n/a
471.525	0.653	CEREBRUM	lure	n/a	1	n/a
472.192	0.451	MICROMETER	lure	n/a	1	n/a
472.659	0.438	CONFETTI	lure	n/a	1	n/a
473.109	0.575	TALENT	lure	n/a	1	n/a
473.692	0.674	MODULATION	lure	n/a	1	n/a
474.375	0.721	EXECUTOR	lure	n/a	1	n/a
475.109	0.698	DEVICE	lure	n/a	1	n/a
475.825	0.517	CRUDE	lure	n/a	1	n/a
476.359	0.704	DIVER	lure	n/a	1	n/a
477.075	0.674	FEROCITY	lure	n/a	1	n/a
477.762	0.214	PREVISION	lure	n/a	1	n/a
477.992	0.503	ENSIGN	lure	n/a	1	n/a
478.509	2.001	CHALK	long	n/a	1	n/a
480.525	0.602	SWINGER	lure	n/a	1	n/a
481.142	0.643	MEDIATION	lure	n/a	1	n/a
481.792	0.536	JASPER	lure	n/a	1	n/a
482.342	0.488	HOOLIGAN	lure	n/a	1	n/a
482.842	0.689	REVEREND	lure	n/a	1	n/a
483.609	0.31	FLIGHT	lure	n/a	1	n/a
483.925	0.05	FELLA	lure	n/a	1	n/a
483.992	0.503	WILDFIRE	lure	n/a	1	n/a
484.509	0.603	LEAF	short	n/a	1	n/a
485.125	0.724	SULFIDE	lure	n/a	1	n/a
485.859	0.558	LITIGATION	lure	n/a	1	n/a
486.425	0.542	GRASSLAND	lure	n/a	1	n/a
486.979	0.467	PLURALISM	lure	n/a	1	n/a
487.459	0.627	IMPOSTOR	lure	n/a	1	n/a
488.092	0.427	ONSET	lure	n/a	1	n/a
488.525	0.541	EXPEDIENCE	lure	n/a	1	n/a
489.075	0.628	LANDMARK	lure	n/a	1	n/a
489.709	0.563	IMBALANCE	lure	n/a	1	n/a
490.275	0.473	DYNASTY	lure	n/a	1	n/a
490.76	0.623	CHAMPAIGN	lure	n/a	1	n/a
491.395	0.732	VILLAGE	lure	n/a	1	n/a
492.142	0.329	APPENDAGE	lure	n/a	1	n/a
492.475	0.466	NUANCE	lure	n/a	1	n/a
492.958	0.385	PSYCHO	lure	n/a	1	n/a
493.358	0.618	MIDNIGHT	lure	n/a	1	n/a
494.058	0.502	HYMNAL	lure	n/a	1	n/a
494.575	2.002	CURTAIN	long	n/a	1	n/a
496.592	0.445	BRIDESMAID	lure	n/a	1	n/a
497.042	0.468	WOAD	lure	n/a	1	n/a
497.525	0.57	SPECTER	lure	n/a	1	n/a
498.108	0.684	OYSTER	lure	n/a	1	n/a
498.808	0.563	MANHOOD	lure	n/a	1	n/a
499.375	0.526	TABLECLOTH	lure	n/a	1	n/a
499.908	0.547	INQUISITOR	lure	n/a	1	n/a
500.458	0.712	EVE	lure	n/a	1	n/a
501.175	0.371	INSANITY	lure	n/a	1	n/a
501.558	0.442	SURREALIST	lure	n/a	1	n/a
502.008	0.423	BOSOM	lure	n/a	1	n/a
502.442	0.554	GOOGLY	lure	n/a	1	n/a
503.008	0.549	TREE	lure	n/a	1	n/a
503.575	0.592	STEAMER	lure	n/a	1	n/a
504.179	0.445	PINBALL	lure	n/a	1	n/a
504.642	0.536	REDSKIN	lure	n/a	1	n/a
505.192	0.792	POPULATION	lure	n/a	1	n/a
506.008	0.502	WRATH	lure	n/a	1	n/a
506.592	1.003	APPLE	fruit	detect	1	830
507.608	0.352	DESTINY	lure	n/a	1	n/a
507.975	0.614	STABILITY	lure	n/a	1	n/a
508.608	0.429	MILKMAN	lure	n/a	1	n/a
509.042	0.472	SOMBRERO	lure	n/a	1	n/a
509.525	0.405	CORRIDOR	lure	n/a	1	n/a
509.942	0.363	CANNONBALL	lure	n/a	1	n/a
510.308	0.633	CURATOR	lure	n/a	1	n/a
510.958	0.561	CARTILAGE	lure	n/a	1	n/a
511.525	0.379	HANDRAIL	lure	n/a	1	n/a
511.908	0.465	CAVEMEN	lure	n/a	1	n/a
512.392	0.622	TYPEFACE	lure	n/a	1	n/a
513.025	0.71	HAIRLINE	lure	n/a	1	n/a
513.742	0.54	GIN	lure	n/a	1	n/a
514.293	0.737	DRUMHEAD	lure	n/a	1	n/a
515.041	0.744	CHIPMUNK	lure	n/a	1	n/a
515.792	0.681	INTEGER	lure	n/a	1	n/a
516.491	0.66	CURIOSITY	lure	n/a	1	n/a
517.158	0.546	CREDENCE	lure	n/a	1	n/a
517.708	0.528	DEVIANCE	lure	n/a	1	n/a
518.325	0.312	COURAGE	lure	n/a	1	n/a
518.642	0.425	PARKWAY	lure	n/a	1	n/a
519.075	0.336	BIRTHDAY	lure	n/a	1	n/a
519.425	0.549	HARDBOARD	lure	n/a	1	n/a
519.991	0.598	HASP	lure	n/a	1	n/a
520.608	0.689	SPHINCTER	lure	n/a	1	n/a
521.308	0.742	DIGNITY	lure	n/a	1	n/a
522.058	0.352	APPROVAL	lure	n/a	1	n/a
522.425	0.438	SLIVER	lure	n/a	1	n/a
522.875	0.715	BOOKSHELF	lure	n/a	1	n/a
523.608	0.367	HOG	lure	n/a	1	n/a
523.991	0.501	WAREHOUSE	lure	n/a	1	n/a
524.508	0.602	BUCKET	short	n/a	1	n/a
525.125	0.516	GRUB	lure	n/a	1	n/a
525.658	0.31	MEMORANDA	lure	n/a	1	n/a
525.975	0.71	METRO	lure	n/a	1	n/a
526.691	0.475	ANTENNA	lure	n/a	1	n/a
527.175	0.308	PROTOCOL	lure	n/a	1	n/a
527.491	0.515	REJECTION	lure	n/a	1	n/a
528.025	0.665	FOOTPAD	lure	n/a	1	n/a
528.775	0.59	INFIDELITY	lure	n/a	1	n/a
529.375	0.326	ONLOOKER	lure	n/a	1	n/a
529.713	0.512	ENDOWMENT	lure	n/a	1	n/a
530.241	0.468	OPTIMALITY	lure	n/a	1	n/a
530.725	0.395	VALLEY	lure	n/a	1	n/a
531.125	0.503	SPACESUIT	lure	n/a	1	n/a
531.641	0.645	FOLIAGE	lure	n/a	1	n/a
532.291	0.509	VALENTINE	lure	n/a	1	n/a
532.808	0.382	GYMNASIUM	lure	n/a	1	n/a
533.208	0.769	BLOCKHEAD	lure	n/a	1	n/a
533.991	0.501	ADMIRATION	lure	n/a	1	n/a
534.508	0.602	COAL	short	n/a	1	n/a
535.125	0.552	TELECAST	lure	n/a	1	n/a
535.691	0.478	LONGBOW	lure	n/a	1	n/a
536.175	0.565	PORTFOLIO	lure	n/a	1	n/a
536.758	0.609	BARKEEP	lure	n/a	1	n/a
537.375	0.51	DOORNAIL	lure	n/a	1	n/a
537.891	0.67	CHAIRWOMAN	lure	n/a	1	n/a
538.575	0.545	FLOORBOARD	lure	n/a	1	n/a
539.125	0.393	CAMOMILE	lure	n/a	1	n/a
539.608	0.369	DISBELIEF	lure	n/a	1	n/a
539.991	0.324	SEQUIN	lure	n/a	1	n/a
540.324	0.73	ORDIn/aCE	lure	n/a	1	n/a
541.058	0.368	STREAMER	lure	n/a	1	n/a
541.441	0.64	VIRTUOSITY	lure	n/a	1	n/a
542.093	0.419	PALATE	lure	n/a	1	n/a
542.524	0.659	GAMBLER	lure	n/a	1	n/a
543.191	0.424	STARFISH	lure	n/a	1	n/a
543.624	0.442	SOBRIETY	lure	n/a	1	n/a
544.074	0.637	LONER	lure	n/a	1	n/a
544.724	0.556	ALOE	lure	n/a	1	n/a
545.293	0.631	MOISTURE	lure	n/a	1	n/a
545.941	0.749	EARSHOT	lure	n/a	1	n/a
546.708	0.577	SCRAPBOOK	lure	n/a	1	n/a
547.291	0.416	RAPTURE	lure	n/a	1	n/a
547.724	0.587	ADJECTIVE	lure	n/a	1	n/a
548.324	0.672	ENTRANCE	lure	n/a	1	n/a
549.009	0.707	DEBT	lure	n/a	1	n/a
549.729	0.494	RACIALISM	lure	n/a	1	n/a
550.241	0.619	LAMPPOST	lure	n/a	1	n/a
550.941	0.37	STALAGMITE	lure	n/a	1	n/a
551.324	0.529	ZODIAC	lure	n/a	1	n/a
551.858	0.652	VESSEL	lure	n/a	1	n/a