onset	duration	stim	cond	resp	acc	RT
4.05	0.364	TUNAFISH	lure	n/a	1	n/a
4.432	0.593	MISSILE	lure	n/a	1	n/a
5.032	0.595	PELLET	lure	n/a	1	n/a
5.632	0.728	POOCH	lure	n/a	1	n/a
6.366	0.607	TIDBIT	lure	n/a	1	n/a
6.984	0.359	COMPETENCE	lure	n/a	1	n/a
7.349	0.649	FOXHOLE	lure	n/a	1	n/a
8.016	0.502	BIRTHMARK	lure	n/a	1	n/a
8.532	0.603	BUCKET	short	n/a	1	n/a
9.216	0.694	STOWAWAY	lure	n/a	1	n/a
9.916	0.493	SHOEMAKER	lure	n/a	1	n/a
10.416	0.568	RATION	lure	n/a	1	n/a
10.999	0.586	CHINCHILLA	lure	n/a	1	n/a
11.599	0.528	BACKDROP	lure	n/a	1	n/a
12.132	0.464	UBIQUITY	lure	n/a	1	n/a
12.616	0.484	DOORFRAME	lure	n/a	1	n/a
13.116	0.567	WRANGLER	lure	n/a	1	n/a
13.699	0.366	PATRIMONY	lure	n/a	1	n/a
14.082	0.563	PROM	lure	n/a	1	n/a
14.649	0.459	GALAXY	lure	n/a	1	n/a
15.116	0.884	POLARITY	lure	n/a	1	n/a
16.016	0.501	CRANNY	lure	n/a	1	n/a
16.532	2.001	MAZE	long	n/a	1	n/a
18.549	0.535	EQUATION	lure	n/a	1	n/a
19.099	0.389	ALLEGATION	lure	n/a	1	n/a
19.499	0.577	BRISKET	lure	n/a	1	n/a
20.082	0.628	BREAKWATER	lure	n/a	1	n/a
20.716	0.618	PATHFINDER	lure	n/a	1	n/a
21.349	0.65	HOCKEY	lure	n/a	1	n/a
22.082	0.502	LAUNCHER	lure	n/a	1	n/a
22.599	2.002	PUPPET	long	n/a	1	n/a
24.615	0.604	DIESEL	lure	n/a	1	n/a
25.232	0.564	VALET	lure	n/a	1	n/a
25.799	0.691	SITTER	lure	n/a	1	n/a
26.499	0.609	PROVERB	lure	n/a	1	n/a
27.115	0.559	CLEFT	lure	n/a	1	n/a
27.687	0.654	ARROW	lure	n/a	1	n/a
28.352	0.642	ENIGMA	lure	n/a	1	n/a
28.999	0.605	FIREPOWER	lure	n/a	1	n/a
29.615	0.319	INNOCENCE	lure	n/a	1	n/a
29.949	0.511	CONTRACTOR	lure	n/a	1	n/a
30.465	0.738	CRACKPOT	lure	n/a	1	n/a
31.215	0.784	SABRE	lure	n/a	1	n/a
32.015	0.502	BATHROBE	lure	n/a	1	n/a
32.532	2.002	CURTAIN	long	n/a	1	n/a
34.549	0.462	WEAKLING	lure	n/a	1	n/a
35.015	0.305	SPATULA	lure	n/a	1	n/a
35.332	0.567	TOGA	lure	n/a	1	n/a
35.915	0.486	DOGFIGHT	lure	n/a	1	n/a
36.482	0.356	OVERHANG	lure	n/a	1	n/a
36.849	0.302	COALFIELD	lure	n/a	1	n/a
37.165	0.537	POSSESSOR	lure	n/a	1	n/a
37.715	0.745	NUTRIENT	lure	n/a	1	n/a
38.465	0.376	JUICE	lure	n/a	1	n/a
38.849	0.518	MYSTERY	lure	n/a	1	n/a
39.382	0.618	INDIGNITY	lure	n/a	1	n/a
40.015	0.501	SPANGLE	lure	n/a	1	n/a
40.532	0.602	BANNER	short	n/a	1	n/a
41.149	0.656	RIGGER	lure	n/a	1	n/a
41.816	0.672	QUAD	lure	n/a	1	n/a
42.499	0.432	DIVORCEE	lure	n/a	1	n/a
42.949	0.438	PEST	lure	n/a	1	n/a
43.399	0.661	DOCKET	lure	n/a	1	n/a
44.065	0.635	POORHOUSE	lure	n/a	1	n/a
44.715	0.682	FREIGHTER	lure	n/a	1	n/a
45.415	0.32	FRIDGE	lure	n/a	1	n/a
45.749	0.562	TISSUE	lure	n/a	1	n/a
46.315	0.442	BUCKWHEAT	lure	n/a	1	n/a
46.765	0.489	EMPIRE	lure	n/a	1	n/a
47.332	0.543	BALLOONIST	lure	n/a	1	n/a
47.882	0.447	STARLIGHT	lure	n/a	1	n/a
48.332	0.529	HORNPIPE	lure	n/a	1	n/a
48.865	0.542	IMPEDIMENT	lure	n/a	1	n/a
49.415	0.584	COB	lure	n/a	1	n/a
50.015	0.503	TIARA	lure	n/a	1	n/a
50.532	0.602	COAL	short	n/a	1	n/a
51.148	0.438	SALTWATER	lure	n/a	1	n/a
51.598	0.603	ANNEX	lure	n/a	1	n/a
52.215	0.497	BACTERIA	lure	n/a	1	n/a
52.732	0.669	ALLIANCE	lure	n/a	1	n/a
53.415	0.355	EXORCISM	lure	n/a	1	n/a
53.782	0.68	LINER	lure	n/a	1	n/a
54.465	0.408	CENTRIFUGE	lure	n/a	1	n/a
54.882	0.666	GIRAFFE	lure	n/a	1	n/a
55.565	0.47	SADDLEBAG	lure	n/a	1	n/a
56.048	0.461	BUN	lure	n/a	1	n/a
56.515	0.473	MOMENT	lure	n/a	1	n/a
56.998	0.991	DEPOSITORY	lure	n/a	1	n/a
57.998	0.503	REFLEX	lure	n/a	1	n/a
58.586	1.005	CANTELOUPE	fruit	detect	1	787
59.598	0.712	EXTRACTOR	lure	n/a	1	n/a
60.315	0.408	PARABOLA	lure	n/a	1	n/a
60.732	0.71	CLOAKROOM	lure	n/a	1	n/a
61.448	0.519	LIVER	lure	n/a	1	n/a
61.982	0.621	SALON	lure	n/a	1	n/a
62.615	0.428	BOWMAN	lure	n/a	1	n/a
63.048	0.393	SCAPEGOAT	lure	n/a	1	n/a
63.448	0.354	SAUCE	lure	n/a	1	n/a
63.815	0.626	FURY	lure	n/a	1	n/a
64.453	0.521	LEGACY	lure	n/a	1	n/a
64.985	0.34	MUFFLER	lure	n/a	1	n/a
65.332	0.531	Un/aEASON	lure	n/a	1	n/a
65.865	0.354	POLLEN	lure	n/a	1	n/a
66.232	0.732	CORONA	lure	n/a	1	n/a
66.982	0.531	PSYCHIATRY	lure	n/a	1	n/a
67.532	0.529	HALTER	lure	n/a	1	n/a
68.065	0.619	MEDICINE	lure	n/a	1	n/a
68.698	0.442	BREAKOUT	lure	n/a	1	n/a
69.148	0.425	TRUMPETER	lure	n/a	1	n/a
69.648	0.684	LEVITATION	lure	n/a	1	n/a
70.348	0.615	PUDDLE	lure	n/a	1	n/a
70.982	1.018	PRODUCER	lure	n/a	1	n/a
72.015	0.501	GRAIN	lure	n/a	1	n/a
72.532	1.003	GRAPEFRUIT	fruit	detect	1	705
73.548	0.422	POCKETFUL	lure	n/a	1	n/a
73.981	0.619	DETRACTOR	lure	n/a	1	n/a
74.615	0.641	AUTONOMY	lure	n/a	1	n/a
75.268	0.74	CAMPER	lure	n/a	1	n/a
76.02	0.607	SCRIBE	lure	n/a	1	n/a
76.631	0.454	TWEED	lure	n/a	1	n/a
77.098	0.711	SAX	lure	n/a	1	n/a
77.815	0.569	STYLIST	lure	n/a	1	n/a
78.398	0.313	FRACTURE	lure	n/a	1	n/a
78.715	0.382	NEWSMEN	lure	n/a	1	n/a
79.115	0.723	FROSTBITE	lure	n/a	1	n/a
79.848	0.472	TALISMAN	lure	n/a	1	n/a
80.331	0.604	NEPHEW	lure	n/a	1	n/a
80.948	0.597	BREADLINE	lure	n/a	1	n/a
81.565	0.428	CHIEFTAIN	lure	n/a	1	n/a
82.065	0.671	LITERATURE	lure	n/a	1	n/a
82.748	0.37	ACCOUNTANT	lure	n/a	1	n/a
83.131	0.694	DESOLATION	lure	n/a	1	n/a
83.831	0.444	SPASM	lure	n/a	1	n/a
84.281	0.365	VINE	lure	n/a	1	n/a
84.665	0.629	ACORN	lure	n/a	1	n/a
85.298	0.702	DRAGONFLY	lure	n/a	1	n/a
86.015	0.502	FELLOWSHIP	lure	n/a	1	n/a
86.531	0.603	TICKET	short	n/a	1	n/a
87.148	0.647	VOCATION	lure	n/a	1	n/a
87.815	0.503	LATEX	lure	n/a	1	n/a
88.331	0.726	CRACKER	lure	n/a	1	n/a
89.065	0.531	RIPTIDE	lure	n/a	1	n/a
89.615	0.69	CHASM	lure	n/a	1	n/a
90.315	0.664	MEDAL	lure	n/a	1	n/a
90.998	0.312	REDHEAD	lure	n/a	1	n/a
91.315	0.613	STORYLINE	lure	n/a	1	n/a
91.931	0.525	EDITION	lure	n/a	1	n/a
92.465	0.692	VEHICLE	lure	n/a	1	n/a
93.165	0.835	ALE	lure	n/a	1	n/a
94.081	0.502	TORCHLIGHT	lure	n/a	1	n/a
94.598	2.001	BRAKE	long	n/a	1	n/a
96.615	0.394	MUSCLEMAN	lure	n/a	1	n/a
97.015	0.616	TENACITY	lure	n/a	1	n/a
97.648	0.612	LEFTHANDER	lure	n/a	1	n/a
98.264	0.503	JAILBIRD	lure	n/a	1	n/a
98.781	0.469	PRESIDENT	lure	n/a	1	n/a
99.264	0.354	HOTHEAD	lure	n/a	1	n/a
99.631	0.545	TABERNACLE	lure	n/a	1	n/a
100.181	0.505	FABRIC	lure	n/a	1	n/a
100.698	0.519	ELOQUENCE	lure	n/a	1	n/a
101.231	0.714	HESITANCE	lure	n/a	1	n/a
101.964	0.027	WINNER	lure	n/a	1	n/a
101.998	0.501	VINYL	lure	n/a	1	n/a
102.514	0.603	BRIDGE	short	n/a	1	n/a
103.131	0.48	DISPOSAL	lure	n/a	1	n/a
103.631	0.521	HIDEAWAY	lure	n/a	1	n/a
104.165	0.524	PARASOL	lure	n/a	1	n/a
104.702	0.587	INFRACTION	lure	n/a	1	n/a
105.298	0.398	ANIMOSITY	lure	n/a	1	n/a
105.781	0.649	COMBAT	lure	n/a	1	n/a
106.448	0.384	PUBLISHER	lure	n/a	1	n/a
106.848	0.498	HYPERBOLE	lure	n/a	1	n/a
107.364	0.433	SPHINX	lure	n/a	1	n/a
107.814	0.612	ENTRY	lure	n/a	1	n/a
108.431	0.417	LEGION	lure	n/a	1	n/a
108.864	1.126	FLUENCY	lure	n/a	1	n/a
109.998	0.502	SLAW	lure	n/a	1	n/a
110.514	1.004	WATERMELON	fruit	detect	1	650
111.531	0.591	CARTRIDGE	lure	n/a	1	n/a
112.131	0.709	LESSON	lure	n/a	1	n/a
112.848	0.384	MALCONTENT	lure	n/a	1	n/a
113.248	0.387	SHEEN	lure	n/a	1	n/a
113.648	0.533	DOMINION	lure	n/a	1	n/a
114.198	0.589	FIANCE	lure	n/a	1	n/a
114.798	0.595	CAMISOLE	lure	n/a	1	n/a
115.398	0.375	SWORD	lure	n/a	1	n/a
115.781	0.322	BACKLOG	lure	n/a	1	n/a
116.114	0.709	PARAKEET	lure	n/a	1	n/a
116.831	0.319	PAWNBROKER	lure	n/a	1	n/a
117.231	0.607	HORIZON	lure	n/a	1	n/a
117.848	0.324	GROUNDHOG	lure	n/a	1	n/a
118.181	0.302	KINGPIN	lure	n/a	1	n/a
118.498	0.614	DEADWOOD	lure	n/a	1	n/a
119.114	0.538	PLAYGROUP	lure	n/a	1	n/a
119.664	0.387	ANGLER	lure	n/a	1	n/a
120.064	0.666	AFFLUENCE	lure	n/a	1	n/a
120.748	0.682	BLIZZARD	lure	n/a	1	n/a
121.448	0.373	SPECK	lure	n/a	1	n/a
121.831	0.521	VEGETABLE	lure	n/a	1	n/a
122.364	0.538	NIGHTSHADE	lure	n/a	1	n/a
122.914	0.608	ACCOMPLICE	lure	n/a	1	n/a
123.531	0.461	CRYSTAL	lure	n/a	1	n/a
123.997	0.503	QUARRYMEN	lure	n/a	1	n/a
124.514	2.001	STADIUM	long	n/a	1	n/a
126.531	0.423	STREAMSIDE	lure	n/a	1	n/a
126.964	0.584	APPLAUSE	lure	n/a	1	n/a
127.564	0.5	DONATION	lure	n/a	1	n/a
128.081	0.468	CHAIRMAN	lure	n/a	1	n/a
128.564	0.74	HAIRNET	lure	n/a	1	n/a
129.381	0.468	MORROW	lure	n/a	1	n/a
129.864	0.347	DEERSKIN	lure	n/a	1	n/a
130.214	0.435	SNATCHER	lure	n/a	1	n/a
130.664	0.494	GOLFER	lure	n/a	1	n/a
131.164	0.826	CENT	lure	n/a	1	n/a
131.997	0.502	LANDSLIDE	lure	n/a	1	n/a
132.514	0.603	SPARK	short	n/a	1	n/a
133.131	0.421	FLOODLIGHT	lure	n/a	1	n/a
133.564	0.689	PRAIRIE	lure	n/a	1	n/a
134.265	0.709	MANTLE	lure	n/a	1	n/a
134.985	0.547	CHANTER	lure	n/a	1	n/a
135.547	0.415	TURNAROUND	lure	n/a	1	n/a
135.981	0.01	SPARKLER	lure	n/a	1	n/a
135.997	0.5	ASPIRIN	lure	n/a	1	n/a
136.514	0.603	PIN	short	n/a	1	n/a
137.131	0.461	MARKUP	lure	n/a	1	n/a
137.597	0.361	MANUSCRIPT	lure	n/a	1	n/a
137.964	0.684	TRIVIALITY	lure	n/a	1	n/a
138.664	0.421	GIBLET	lure	n/a	1	n/a
139.097	0.608	VELVETEEN	lure	n/a	1	n/a
139.781	0.387	JEALOUSY	lure	n/a	1	n/a
140.181	0.386	COLLAGEN	lure	n/a	1	n/a
140.581	0.535	DUMPLING	lure	n/a	1	n/a
141.131	0.684	CROSSROAD	lure	n/a	1	n/a
141.831	0.449	NIGHTGOWN	lure	n/a	1	n/a
142.297	0.415	TEDDY	lure	n/a	1	n/a
142.731	0.607	COURTYARD	lure	n/a	1	n/a
143.347	0.644	CONTINUITY	lure	n/a	1	n/a
143.997	0.501	KILOMETER	lure	n/a	1	n/a
144.514	2.001	PISTOL	long	n/a	1	n/a
146.53	0.665	WAISTCOAT	lure	n/a	1	n/a
147.214	0.717	UPSHOT	lure	n/a	1	n/a
147.947	0.537	SUBVERSION	lure	n/a	1	n/a
148.497	0.403	RELATIVITY	lure	n/a	1	n/a
148.914	1.077	SCIENTIST	lure	n/a	1	n/a
149.997	0.502	SOCKET	lure	n/a	1	n/a
150.514	2.002	CHALK	long	n/a	1	n/a
152.53	0.599	ANOREXIA	lure	n/a	1	n/a
153.147	0.369	IVY	lure	n/a	1	n/a
153.53	0.408	PACIFIER	lure	n/a	1	n/a
154.014	0.426	AMORALITY	lure	n/a	1	n/a
154.447	0.312	TRAJECTORY	lure	n/a	1	n/a
154.764	0.386	VIABILITY	lure	n/a	1	n/a
155.164	0.329	DESPERADO	lure	n/a	1	n/a
155.497	0.426	HEARTBEAT	lure	n/a	1	n/a
155.93	0.061	MILLIMETER	lure	n/a	1	n/a
155.997	0.503	SLIPCOVER	lure	n/a	1	n/a
156.514	2.002	GALLON	long	n/a	1	n/a
158.53	0.505	APPAREL	lure	n/a	1	n/a
159.047	0.644	BOBSLED	lure	n/a	1	n/a
159.697	0.74	DRONE	lure	n/a	1	n/a
160.447	0.662	POLLUTION	lure	n/a	1	n/a
161.114	0.465	DOUCHE	lure	n/a	1	n/a
161.597	0.397	PULLBACK	lure	n/a	1	n/a
161.997	0.502	NARRATION	lure	n/a	1	n/a
162.514	0.559	DEMON	lure	n/a	1	n/a
163.08	0.488	LECH	lure	n/a	1	n/a
163.58	0.41	POACHER	lure	n/a	1	n/a
163.997	0.503	GRENADINE	lure	n/a	1	n/a
164.514	1.005	CRANBERRY	fruit	detect	1	739
165.597	0.605	ICECAP	lure	n/a	1	n/a
166.214	0.533	HOMICIDE	lure	n/a	1	n/a
166.764	0.484	FLATFOOT	lure	n/a	1	n/a
167.264	0.447	SETTLER	lure	n/a	1	n/a
167.714	0.595	EAR	lure	n/a	1	n/a
168.314	0.593	INTAKE	lure	n/a	1	n/a
168.918	0.387	HAT	lure	n/a	1	n/a
169.317	0.475	MISCHIEF	lure	n/a	1	n/a
169.797	0.703	PETUNIA	lure	n/a	1	n/a
170.514	0.343	SCRIPTURE	lure	n/a	1	n/a
170.864	0.504	MINUTEMEN	lure	n/a	1	n/a
171.38	0.698	FACTORY	lure	n/a	1	n/a
172.097	0.626	EGOTIST	lure	n/a	1	n/a
172.735	0.658	PICNIC	lure	n/a	1	n/a
173.397	0.412	THRONE	lure	n/a	1	n/a
173.814	0.315	MANIA	lure	n/a	1	n/a
174.147	0.508	EMISSION	lure	n/a	1	n/a
174.663	0.517	STATEROOM	lure	n/a	1	n/a
175.197	0.635	SKINNER	lure	n/a	1	n/a
175.847	0.359	FOREFATHER	lure	n/a	1	n/a
176.28	0.41	DOORMEN	lure	n/a	1	n/a
176.697	0.611	CONTROLLER	lure	n/a	1	n/a
177.313	0.678	DOGCATCHER	lure	n/a	1	n/a
177.997	0.502	FLAW	lure	n/a	1	n/a
178.513	2.002	GRAVEL	long	n/a	1	n/a
180.53	0.384	SUBMERSION	lure	n/a	1	n/a
180.93	0.688	BROTH	lure	n/a	1	n/a
181.63	0.356	TOURIST	lure	n/a	1	n/a
181.997	0.359	SOCIOLOGY	lure	n/a	1	n/a
182.363	0.452	BOUT	lure	n/a	1	n/a
182.83	0.462	PILLBOX	lure	n/a	1	n/a
183.297	0.693	MISSTEP	lure	n/a	1	n/a
183.997	0.503	BOUNCER	lure	n/a	1	n/a
184.513	0.603	LEAF	short	n/a	1	n/a
185.13	0.663	VERTEBRAE	lure	n/a	1	n/a
185.797	0.407	TRAIT	lure	n/a	1	n/a
186.215	0.406	SHOESTRING	lure	n/a	1	n/a
186.63	0.305	ABDUCTION	lure	n/a	1	n/a
186.947	0.567	CRIMP	lure	n/a	1	n/a
187.53	0.435	DIVERSITY	lure	n/a	1	n/a
188.047	0.667	PRECEPT	lure	n/a	1	n/a
188.73	0.752	CLICHE	lure	n/a	1	n/a
189.497	0.493	CONCEPT	lure	n/a	1	n/a
189.997	0.502	GUNMAN	lure	n/a	1	n/a
190.513	0.601	PYRAMID	short	n/a	1	n/a
191.13	0.354	GUILT	lure	n/a	1	n/a
191.497	0.412	RESILIENCE	lure	n/a	1	n/a
191.913	0.434	SONGBIRD	lure	n/a	1	n/a
192.363	0.722	TURTLE	lure	n/a	1	n/a
193.097	0.309	PACEMAKER	lure	n/a	1	n/a
193.413	0.669	SKIRMISH	lure	n/a	1	n/a
194.097	0.626	LARCENY	lure	n/a	1	n/a
194.73	0.619	RETROSPECT	lure	n/a	1	n/a
195.363	0.648	MIDST	lure	n/a	1	n/a
196.03	0.525	OVATION	lure	n/a	1	n/a
196.563	0.674	ACCEPTANCE	lure	n/a	1	n/a
197.246	0.357	EUPHEMISM	lure	n/a	1	n/a
197.613	0.336	RITE	lure	n/a	1	n/a
197.963	0.375	DOORBELL	lure	n/a	1	n/a
198.346	0.584	PIGLET	lure	n/a	1	n/a
199.013	0.977	COMRADE	lure	n/a	1	n/a
199.996	0.503	FLAGPOLE	lure	n/a	1	n/a
200.513	0.601	LAKE	short	n/a	1	n/a
201.13	0.557	CHILI	lure	n/a	1	n/a
201.698	0.594	SULPHUR	lure	n/a	1	n/a
202.296	0.426	DISHARMONY	lure	n/a	1	n/a
202.73	0.417	FRACTION	lure	n/a	1	n/a
203.163	0.432	REBUTTAL	lure	n/a	1	n/a
203.613	0.68	SERVILITY	lure	n/a	1	n/a
204.296	0.621	SCHOOLBOY	lure	n/a	1	n/a
204.93	0.73	PROPELLER	lure	n/a	1	n/a
205.663	0.406	ALDERMEN	lure	n/a	1	n/a
206.08	0.705	SWEEPER	lure	n/a	1	n/a
206.796	0.569	COMPLEXION	lure	n/a	1	n/a
207.38	0.621	ROSEBUSH	lure	n/a	1	n/a
208.013	0.317	BOATLOAD	lure	n/a	1	n/a
208.346	0.419	MANDOLIN	lure	n/a	1	n/a
208.78	0.55	BANDAGE	lure	n/a	1	n/a
209.346	0.644	AVOCADO	lure	n/a	1	n/a
209.996	0.501	GLEN	lure	n/a	1	n/a
210.58	1.004	ELDERBERRY	fruit	detect	1	793
211.596	0.737	NITROGEN	lure	n/a	1	n/a
212.346	0.737	ETHANOL	lure	n/a	1	n/a
213.096	0.45	HEARTACHE	lure	n/a	1	n/a
213.563	0.614	LINEN	lure	n/a	1	n/a
214.196	0.41	EXUBERANCE	lure	n/a	1	n/a
214.613	0.695	DIALECT	lure	n/a	1	n/a
215.313	0.384	BROWNING	lure	n/a	1	n/a
215.713	0.449	DECREMENT	lure	n/a	1	n/a
216.18	0.409	VOLTAGE	lure	n/a	1	n/a
216.6	0.339	COMMENTARY	lure	n/a	1	n/a
216.946	0.496	SLOAN	lure	n/a	1	n/a
217.446	0.308	RAVEL	lure	n/a	1	n/a
217.763	0.547	MOUTHWASH	lure	n/a	1	n/a
218.313	0.317	CHARIOT	lure	n/a	1	n/a
218.646	0.422	RECAP	lure	n/a	1	n/a
219.08	0.532	PINSTRIPE	lure	n/a	1	n/a
219.63	0.496	VENUE	lure	n/a	1	n/a
220.13	0.34	JET	lure	n/a	1	n/a
220.48	0.45	FLOWCHART	lure	n/a	1	n/a
221.013	0.35	CAMPSITE	lure	n/a	1	n/a
221.379	0.626	SALTER	lure	n/a	1	n/a
222.013	0.676	HEADBOARD	lure	n/a	1	n/a
222.696	0.724	PERFORMER	lure	n/a	1	n/a
223.432	0.403	BLOWTORCH	lure	n/a	1	n/a
223.846	0.746	NUTSHELL	lure	n/a	1	n/a
224.596	0.368	GIVER	lure	n/a	1	n/a
224.979	1.012	CHOICE	lure	n/a	1	n/a
225.996	0.501	DOUGH	lure	n/a	1	n/a
226.513	1.002	ORANGE	fruit	n/a	0	n/a
227.529	0.528	DEFAMATION	lure	detect	0	75
228.063	0.633	SPORTSMEN	lure	n/a	1	n/a
228.713	0.438	NEWSPAPER	lure	n/a	1	n/a
229.163	0.677	DEFENDANT	lure	n/a	1	n/a
229.846	0.739	BLOWUP	lure	n/a	1	n/a
230.596	0.602	IMITATION	lure	n/a	1	n/a
231.213	0.699	SYNAGOGUE	lure	n/a	1	n/a
231.929	0.321	GINSENG	lure	n/a	1	n/a
232.263	0.54	WOE	lure	n/a	1	n/a
232.813	0.535	DRAMA	lure	n/a	1	n/a
233.429	0.523	MIDAIR	lure	n/a	1	n/a
233.963	0.531	ANTELOPE	lure	n/a	1	n/a
234.513	0.463	PENALTY	lure	n/a	1	n/a
234.979	0.429	BEELINE	lure	n/a	1	n/a
235.413	0.512	HELPER	lure	n/a	1	n/a
235.929	0.454	UTENSIL	lure	n/a	1	n/a
236.396	0.419	BYWAY	lure	n/a	1	n/a
236.829	0.462	PENDANT	lure	n/a	1	n/a
237.296	0.533	PROJECTILE	lure	n/a	1	n/a
237.846	0.581	ROOSTER	lure	n/a	1	n/a
238.446	0.417	MURK	lure	n/a	1	n/a
238.879	0.665	EPIGRAPH	lure	n/a	1	n/a
239.563	0.468	BIRDIE	lure	n/a	1	n/a
240.046	0.559	INKWELL	lure	n/a	1	n/a
240.613	0.375	SPECIALITY	lure	n/a	1	n/a
240.999	0.991	ADDITION	lure	n/a	1	n/a
241.996	0.503	COVERALL	lure	n/a	1	n/a
242.513	2.001	ORNAMENT	long	n/a	1	n/a
244.529	0.744	DRAY	lure	n/a	1	n/a
245.279	0.409	DISUNION	lure	n/a	1	n/a
245.763	0.497	JERSEY	lure	n/a	1	n/a
246.262	0.557	PROMENADE	lure	n/a	1	n/a
246.829	0.303	GALLEY	lure	n/a	1	n/a
247.146	0.422	DILL	lure	n/a	1	n/a
247.579	0.692	REDEMPTION	lure	n/a	1	n/a
248.282	0.652	TEMPEST	lure	n/a	1	n/a
248.946	0.503	CONCERT	lure	n/a	1	n/a
249.462	0.533	LANE	lure	n/a	1	n/a
250.012	0.631	GRINDER	lure	n/a	1	n/a
250.662	0.58	PEDESTAL	lure	n/a	1	n/a
251.246	0.347	YEAST	lure	n/a	1	n/a
251.596	0.346	APARTHEID	lure	n/a	1	n/a
251.946	0.695	SANCTITY	lure	n/a	1	n/a
252.646	0.419	DOCTRINE	lure	n/a	1	n/a
253.079	0.51	TELESCOPE	lure	n/a	1	n/a
253.596	0.584	GRANDMA	lure	n/a	1	n/a
254.196	0.626	STATEMENT	lure	n/a	1	n/a
254.829	0.531	SPECIALIST	lure	n/a	1	n/a
255.379	0.563	BARRACUDA	lure	n/a	1	n/a
255.946	0.635	MAGNATE	lure	n/a	1	n/a
256.662	0.743	SUBSYSTEM	lure	n/a	1	n/a
257.412	0.687	ORCHESTRA	lure	n/a	1	n/a
258.112	0.46	DEMOGRAPHY	lure	n/a	1	n/a
258.579	0.507	PRINCE	lure	n/a	1	n/a
259.098	0.419	DISTASTE	lure	n/a	1	n/a
259.529	0.328	RELAXATION	lure	n/a	1	n/a
259.862	0.374	CRITERION	lure	n/a	1	n/a
260.246	0.7	POETRY	lure	n/a	1	n/a
260.962	0.515	SHUTTLE	lure	n/a	1	n/a
261.496	0.741	FORTNIGHT	lure	n/a	1	n/a
262.246	0.731	SUCCESSOR	lure	n/a	1	n/a
262.996	0.616	VULGARITY	lure	n/a	1	n/a
263.629	0.345	UNDERWOOD	lure	n/a	1	n/a
263.979	0.617	DOWNER	lure	n/a	1	n/a
264.612	0.331	POD	lure	n/a	1	n/a
264.962	0.68	BAGPIPE	lure	n/a	1	n/a
265.646	0.682	HANGUP	lure	n/a	1	n/a
266.346	0.357	KEROSENE	lure	n/a	1	n/a
266.712	0.436	TIMBER	lure	n/a	1	n/a
267.162	0.413	PIETY	lure	n/a	1	n/a
267.662	0.314	ANNULMENT	lure	n/a	1	n/a
267.996	0.57	MOTORCADE	lure	n/a	1	n/a
268.579	0.742	KITCHEN	lure	n/a	1	n/a
269.332	0.596	RETRACTION	lure	n/a	1	n/a
269.945	0.579	MONEY	lure	n/a	1	n/a
270.529	0.738	CUTTER	lure	n/a	1	n/a
281.195	0.457	GETAWAY	lure	n/a	1	n/a
281.665	0.326	CONTEXT	lure	n/a	1	n/a
282.012	0.501	SALE	lure	n/a	1	n/a
282.529	1.007	BAn/aA	fruit	detect	1	692
283.545	0.35	REACTIVITY	lure	n/a	1	n/a
283.912	0.712	DYNAMITE	lure	n/a	1	n/a
284.629	0.473	MOTTO	lure	n/a	1	n/a
285.113	0.424	GROCERY	lure	n/a	1	n/a
285.545	0.401	STRUDEL	lure	n/a	1	n/a
285.962	0.596	NEUTRON	lure	n/a	1	n/a
286.562	0.521	LIVERWURST	lure	n/a	1	n/a
287.095	0.38	BULB	lure	n/a	1	n/a
287.479	0.428	STRIPE	lure	n/a	1	n/a
287.912	0.701	FINGERTIP	lure	n/a	1	n/a
288.695	0.677	LOON	lure	n/a	1	n/a
289.379	0.434	SERMON	lure	n/a	1	n/a
289.829	0.545	EARL	lure	n/a	1	n/a
290.395	0.624	RUM	lure	n/a	1	n/a
291.032	0.362	VINEGAR	lure	n/a	1	n/a
291.412	0.374	SQUATTER	lure	n/a	1	n/a
291.795	0.322	SAILOR	lure	n/a	1	n/a
292.129	0.376	DISHWASHER	lure	n/a	1	n/a
292.512	0.644	BEACHHEAD	lure	n/a	1	n/a
293.178	0.813	SUSHI	lure	n/a	1	n/a
294.012	0.502	EPISTLE	lure	n/a	1	n/a
294.532	2.002	PUPPET	long	n/a	1	n/a
296.545	0.389	FANTASY	lure	n/a	1	n/a
296.945	0.561	ENAMEL	lure	n/a	1	n/a
297.512	0.696	ICECUBE	lure	n/a	1	n/a
298.212	0.649	SPRINGTIME	lure	n/a	1	n/a
298.878	0.574	FEDERALISM	lure	n/a	1	n/a
299.462	0.428	SYNONYM	lure	n/a	1	n/a
299.895	0.64	SANDBOX	lure	n/a	1	n/a
300.545	0.366	EVICTION	lure	n/a	1	n/a
300.995	0.997	SLOWPOKE	lure	n/a	1	n/a
302.012	0.503	MAGICIAN	lure	n/a	1	n/a
302.528	0.603	PYRAMID	short	n/a	1	n/a
303.145	0.624	WINDMILL	lure	n/a	1	n/a
303.778	0.677	ADMIRAL	lure	n/a	1	n/a
304.462	0.503	KNOT	lure	n/a	1	n/a
304.978	0.705	SAVER	lure	n/a	1	n/a
305.695	0.529	RADISH	lure	n/a	1	n/a
306.228	0.713	BEECH	lure	n/a	1	n/a
306.945	0.693	EXPONENT	lure	n/a	1	n/a
307.645	0.452	EYELASH	lure	n/a	1	n/a
308.112	0.356	SCOREBOOK	lure	n/a	1	n/a
308.478	0.684	FINALE	lure	n/a	1	n/a
309.178	0.571	AQUEDUCT	lure	n/a	1	n/a
309.762	0.412	DIVERSION	lure	n/a	1	n/a
310.178	0.732	MIDSTREAM	lure	n/a	1	n/a
310.928	0.47	FISSION	lure	n/a	1	n/a
311.412	0.572	IMAGERY	lure	n/a	1	n/a
311.995	0.501	FORERUNNER	lure	n/a	1	n/a
312.512	1.002	PEAR	fruit	detect	1	829
313.595	0.555	WATERSIDE	lure	n/a	1	n/a
314.162	0.63	DAY	lure	n/a	1	n/a
314.812	0.64	DIFFICULTY	lure	n/a	1	n/a
315.462	0.653	HERON	lure	n/a	1	n/a
316.128	0.357	BOARDWALK	lure	n/a	1	n/a
316.495	0.683	PROPULSION	lure	n/a	1	n/a
317.195	0.419	BOMBSIGHT	lure	n/a	1	n/a
317.628	0.657	MOB	lure	n/a	1	n/a
318.295	0.544	DRESSMAKER	lure	n/a	1	n/a
318.845	0.435	HOUR	lure	n/a	1	n/a
319.295	0.594	SHOELACE	lure	n/a	1	n/a
319.895	0.547	TEARDROP	lure	n/a	1	n/a
320.445	0.519	WASHCLOTH	lure	n/a	1	n/a
320.978	0.542	WATERSPOUT	lure	n/a	1	n/a
321.528	0.576	THRUSH	lure	n/a	1	n/a
322.111	0.307	LEADER	lure	n/a	1	n/a
322.428	0.389	FERTILITY	lure	n/a	1	n/a
322.828	0.44	SOFA	lure	n/a	1	n/a
323.278	0.533	HUBCAP	lure	n/a	1	n/a
323.828	0.556	BIRD	lure	n/a	1	n/a
324.461	0.712	ARK	lure	n/a	1	n/a
325.178	0.331	NODE	lure	n/a	1	n/a
325.528	0.345	CONTORTION	lure	n/a	1	n/a
325.878	0.355	MEDIUM	lure	n/a	1	n/a
326.245	0.522	TOOLMAKER	lure	n/a	1	n/a
326.778	0.362	CAMEL	lure	n/a	1	n/a
327.145	0.847	COHERENCE	lure	n/a	1	n/a
328.011	0.501	GOLFING	lure	n/a	1	n/a
328.528	0.601	LAKE	short	n/a	1	n/a
329.145	0.414	BOATMEN	lure	n/a	1	n/a
329.578	0.48	MOUTH	lure	n/a	1	n/a
330.061	0.337	MILDEW	lure	n/a	1	n/a
330.411	0.619	INSIGHT	lure	n/a	1	n/a
331.045	0.662	ADVISER	lure	n/a	1	n/a
331.711	0.389	DABBLER	lure	n/a	1	n/a
332.111	0.445	LITHOGRAPH	lure	n/a	1	n/a
332.561	0.44	RACCOON	lure	n/a	1	n/a
333.013	0.577	LIFEBOAT	lure	n/a	1	n/a
333.595	0.48	DOME	lure	n/a	1	n/a
334.078	0.405	TRIBUTE	lure	n/a	1	n/a
334.561	0.569	TEXT	lure	n/a	1	n/a
335.145	0.518	SOLIDITY	lure	n/a	1	n/a
335.678	0.312	PARAPHRASE	lure	n/a	1	n/a
335.995	0.522	UNIFORMITY	lure	n/a	1	n/a
336.528	0.654	LUNG	lure	n/a	1	n/a
337.195	0.788	YACHT	lure	n/a	1	n/a
337.995	0.501	EMBASSY	lure	n/a	1	n/a
338.511	2.001	MAZE	long	n/a	1	n/a
340.528	0.665	SKULLCAP	lure	n/a	1	n/a
341.211	0.46	REFRACTION	lure	n/a	1	n/a
341.678	0.506	WATCHMAN	lure	n/a	1	n/a
342.194	0.651	ENEMY	lure	n/a	1	n/a
342.861	0.361	PANTRY	lure	n/a	1	n/a
343.228	0.672	LACKEY	lure	n/a	1	n/a
343.911	0.719	CELEBRITY	lure	n/a	1	n/a
344.644	0.308	ORDEAL	lure	n/a	1	n/a
344.961	0.451	NUCLEI	lure	n/a	1	n/a
345.428	0.327	PURSUIT	lure	n/a	1	n/a
345.761	0.426	CONCOURSE	lure	n/a	1	n/a
346.194	0.641	CLOWN	lure	n/a	1	n/a
346.911	0.369	COUP	lure	n/a	1	n/a
347.294	0.423	CRITICISM	lure	n/a	1	n/a
347.729	0.585	EXCURSION	lure	n/a	1	n/a
348.328	0.533	ALTERNATOR	lure	n/a	1	n/a
348.878	0.394	SURGEON	lure	n/a	1	n/a
349.278	0.705	TRESPASSER	lure	n/a	1	n/a
349.994	0.502	RABBI	lure	n/a	1	n/a
350.511	2.001	CHALK	long	n/a	1	n/a
352.528	0.505	SAWMILL	lure	n/a	1	n/a
353.044	0.347	LEGEND	lure	n/a	1	n/a
353.394	0.608	SEEKER	lure	n/a	1	n/a
354.011	0.648	SHELF	lure	n/a	1	n/a
354.678	0.465	SELECTION	lure	n/a	1	n/a
355.161	0.601	BLACKBIRD	lure	n/a	1	n/a
355.778	0.48	BEARD	lure	n/a	1	n/a
356.261	0.374	JEOPARDY	lure	n/a	1	n/a
356.644	0.459	BROTHER	lure	n/a	1	n/a
357.111	0.871	CELIBACY	lure	n/a	1	n/a
357.994	0.502	RETAKE	lure	n/a	1	n/a
358.511	0.601	PIN	short	n/a	1	n/a
359.197	0.363	OFFSPRING	lure	n/a	1	n/a
359.578	0.683	VOLT	lure	n/a	1	n/a
360.278	0.709	TENOR	lure	n/a	1	n/a
360.994	0.462	VIEWFINDER	lure	n/a	1	n/a
361.461	0.666	COTTONSEED	lure	n/a	1	n/a
362.144	0.523	INFERENCE	lure	n/a	1	n/a
362.678	0.587	TUMBLEWEED	lure	n/a	1	n/a
363.278	0.739	BRIDEGROOM	lure	n/a	1	n/a
364.028	0.572	DOCTORATE	lure	n/a	1	n/a
364.611	0.424	CONVENT	lure	n/a	1	n/a
365.047	0.936	BURIAL	lure	n/a	1	n/a
365.995	0.502	SEDIMENT	lure	n/a	1	n/a
366.511	1.004	ELDERBERRY	fruit	detect	1	958
367.527	0.633	LEGITIMACY	lure	n/a	1	n/a
368.177	0.503	SPONGE	lure	n/a	1	n/a
368.694	0.512	WARLOCK	lure	n/a	1	n/a
369.211	0.406	HOOP	lure	n/a	1	n/a
369.628	0.349	HOMELAND	lure	n/a	1	n/a
369.994	0.498	CLOSEOUT	lure	n/a	1	n/a
370.511	0.638	FISHERMEN	lure	n/a	1	n/a
371.227	0.544	CRYPT	lure	n/a	1	n/a
371.777	0.314	COPYBOOK	lure	n/a	1	n/a
372.111	0.556	REGULATOR	lure	n/a	1	n/a
372.677	0.387	QUIRK	lure	n/a	1	n/a
373.077	0.31	CLERGYMAN	lure	n/a	1	n/a
373.394	0.732	MULE	lure	n/a	1	n/a
374.144	0.722	OUTPOST	lure	n/a	1	n/a
374.877	0.457	FORMATION	lure	n/a	1	n/a
375.344	0.382	TRIPLET	lure	n/a	1	n/a
375.744	0.387	STAKEOUT	lure	n/a	1	n/a
376.144	0.401	CANDLEWICK	lure	n/a	1	n/a
376.561	0.577	FUTURISM	lure	n/a	1	n/a
377.144	0.535	FOUNDER	lure	n/a	1	n/a
377.694	0.288	MYSTIQUE	lure	n/a	1	n/a
377.994	0.502	SHANTYTOWN	lure	n/a	1	n/a
378.511	2.003	BRAKE	long	n/a	1	n/a
380.527	0.303	ASSISTANCE	lure	n/a	1	n/a
380.844	0.508	TABULATION	lure	n/a	1	n/a
381.361	0.666	HORSEPOWER	lure	n/a	1	n/a
382.044	0.535	BARBER	lure	n/a	1	n/a
382.661	0.359	SANDBANK	lure	n/a	1	n/a
383.027	0.703	WINDSTORM	lure	n/a	1	n/a
383.744	0.509	GUY	lure	n/a	1	n/a
384.265	0.367	PROTOTYPE	lure	n/a	1	n/a
384.644	0.308	KRAUT	lure	n/a	1	n/a
384.961	0.305	DAUGHTER	lure	n/a	1	n/a
385.277	0.633	HENCHMAN	lure	n/a	1	n/a
385.927	0.056	VILLAIN	lure	n/a	1	n/a
385.994	0.503	TOOTHPASTE	lure	n/a	1	n/a
386.511	2.002	STADIUM	long	n/a	1	n/a
388.527	0.577	BLIMP	lure	n/a	1	n/a
389.111	0.538	EXTROVERT	lure	n/a	1	n/a
389.661	0.336	AEROPLANE	lure	n/a	1	n/a
390.011	0.42	ETIQUETTE	lure	n/a	1	n/a
390.444	0.308	TORMENT	lure	n/a	1	n/a
390.761	0.674	CLOVERLEAF	lure	n/a	1	n/a
391.447	0.35	TURTLEDOVE	lure	n/a	1	n/a
391.81	0.617	LIMESTONE	lure	n/a	1	n/a
392.444	0.724	SORCERY	lure	n/a	1	n/a
393.177	0.805	EVENING	lure	n/a	1	n/a
394.06	0.502	MAYONNAISE	lure	n/a	1	n/a
394.577	0.602	BRIDGE	short	n/a	1	n/a
395.194	0.673	DUCKLING	lure	n/a	1	n/a
395.877	0.501	NECKTIE	lure	n/a	1	n/a
396.394	0.681	GANGWAY	lure	n/a	1	n/a
397.094	0.306	STRINGENCY	lure	n/a	1	n/a
397.41	0.366	FRICTION	lure	n/a	1	n/a
397.794	0.557	WINDSOCK	lure	n/a	1	n/a
398.362	0.463	CORRUPTER	lure	n/a	1	n/a
398.844	0.417	DREAMLAND	lure	n/a	1	n/a
399.277	0.347	MARL	lure	n/a	1	n/a
399.627	0.601	IMPORTER	lure	n/a	1	n/a
400.244	0.335	HONEY	lure	n/a	1	n/a
400.594	0.662	TYPOGRAPHY	lure	n/a	1	n/a
401.26	0.521	DITTY	lure	n/a	1	n/a
401.794	0.59	OBLIGATION	lure	n/a	1	n/a
402.396	0.308	CRITERIA	lure	n/a	1	n/a
402.715	0.532	SIDEWINDER	lure	n/a	1	n/a
403.26	0.45	CURVATURE	lure	n/a	1	n/a
403.727	0.693	SQUIRE	lure	n/a	1	n/a
404.494	0.397	BOMBSHELL	lure	n/a	1	n/a
404.894	0.43	SPECTRA	lure	n/a	1	n/a
405.327	0.656	DAMSEL	lure	n/a	1	n/a
405.995	0.502	FREQUENCY	lure	n/a	1	n/a
406.51	0.601	COAL	short	n/a	1	n/a
407.127	0.399	MIXTURE	lure	n/a	1	n/a
407.544	0.689	FINDER	lure	n/a	1	n/a
408.244	0.487	CUISINE	lure	n/a	1	n/a
408.744	0.555	BRICK	lure	n/a	1	n/a
409.31	0.623	CARRYOVER	lure	n/a	1	n/a
409.944	0.742	HEIRLOOM	lure	n/a	1	n/a
410.698	0.655	NEWSSTAND	lure	n/a	1	n/a
411.364	0.712	INFIRMARY	lure	n/a	1	n/a
412.094	0.345	BISHOP	lure	n/a	1	n/a
412.444	0.482	HEADREST	lure	n/a	1	n/a
412.944	0.343	ARITHMETIC	lure	n/a	1	n/a
413.294	0.689	REFERENCE	lure	n/a	1	n/a
413.994	0.502	PHONEBOOTH	lure	n/a	1	n/a
414.51	0.602	SPARK	short	n/a	1	n/a
415.127	0.586	GUNNER	lure	n/a	1	n/a
415.793	0.392	FUR	lure	n/a	1	n/a
416.193	0.305	SUCCESSION	lure	n/a	1	n/a
416.51	0.547	RESCRIPT	lure	n/a	1	n/a
417.06	0.66	MARIGOLD	lure	n/a	1	n/a
417.727	0.693	TORRENT	lure	n/a	1	n/a
418.432	0.338	CATWALK	lure	n/a	1	n/a
418.777	0.408	FOUNDLING	lure	n/a	1	n/a
419.193	0.596	ROUNDUP	lure	n/a	1	n/a
419.793	0.639	REFLECTOR	lure	n/a	1	n/a
420.443	0.6	HANDSHAKE	lure	n/a	1	n/a
421.06	0.477	DISBARMENT	lure	n/a	1	n/a
421.543	0.656	HOUSEMAID	lure	n/a	1	n/a
422.21	0.588	DOCUMENT	lure	n/a	1	n/a
422.81	0.398	RENOVATION	lure	n/a	1	n/a
423.227	0.734	COOKIE	lure	n/a	1	n/a
423.977	0.005	PLUNGER	lure	n/a	1	n/a
423.993	0.502	FAIRYTALE	lure	n/a	1	n/a
424.51	2.001	GRAVEL	long	n/a	1	n/a
426.527	0.5	HAILSTONE	lure	n/a	1	n/a
427.043	0.308	SHERRY	lure	n/a	1	n/a
427.427	0.491	HOOPLA	lure	n/a	1	n/a
427.927	0.333	PRETENSION	lure	n/a	1	n/a
428.277	0.395	TEAMSTER	lure	n/a	1	n/a
428.677	0.393	HIKER	lure	n/a	1	n/a
429.077	0.626	GODSON	lure	n/a	1	n/a
429.71	0.663	MIDRIFF	lure	n/a	1	n/a
430.377	0.593	LUCIDITY	lure	n/a	1	n/a
430.977	0.741	ASSEMBLY	lure	n/a	1	n/a
431.727	0.256	RASH	lure	n/a	1	n/a
431.993	0.502	JOURNALIST	lure	n/a	1	n/a
432.51	0.602	BUCKET	short	n/a	1	n/a
433.127	0.326	RAPPORT	lure	n/a	1	n/a
433.46	0.603	SKYDIVER	lure	n/a	1	n/a
434.077	0.373	PEELER	lure	n/a	1	n/a
434.46	0.57	BANKER	lure	n/a	1	n/a
435.043	0.699	COOKOUT	lure	n/a	1	n/a
435.76	0.654	COTTAGE	lure	n/a	1	n/a
436.427	0.577	WINGSPAN	lure	n/a	1	n/a
437.01	0.405	BANGLE	lure	n/a	1	n/a
437.427	0.556	CONSUMER	lure	n/a	1	n/a
438.06	0.502	LETDOWN	lure	n/a	1	n/a
438.577	0.602	BANNER	short	n/a	1	n/a
439.193	0.527	HARPER	lure	n/a	1	n/a
439.727	0.457	DRUDGERY	lure	n/a	1	n/a
440.196	0.702	BREAKDOWN	lure	n/a	1	n/a
440.91	0.422	CONTINUUM	lure	n/a	1	n/a
441.344	0.315	TOURISM	lure	n/a	1	n/a
441.676	0.612	ADDITIVE	lure	n/a	1	n/a
442.293	0.407	GUPPY	lure	n/a	1	n/a
442.71	0.393	ECOLOGY	lure	n/a	1	n/a
443.11	0.565	COUPLET	lure	n/a	1	n/a
443.693	0.69	ROTATION	lure	n/a	1	n/a
444.393	0.31	CHARGER	lure	n/a	1	n/a
444.71	0.645	UMBRELLA	lure	n/a	1	n/a
445.36	0.622	MATH	lure	n/a	1	n/a
445.993	0.503	FLYOVER	lure	n/a	1	n/a
446.51	2.001	ORNAMENT	long	n/a	1	n/a
448.526	0.71	GOLDFISH	lure	n/a	1	n/a
449.243	0.565	INTENSITY	lure	n/a	1	n/a
449.826	0.331	WORDPLAY	lure	n/a	1	n/a
450.243	0.303	AGILITY	lure	n/a	1	n/a
450.56	0.683	GLOBE	lure	n/a	1	n/a
451.26	0.326	CEILING	lure	n/a	1	n/a
451.597	0.37	IGLOO	lure	n/a	1	n/a
451.976	0.751	DEDICATION	lure	n/a	1	n/a
452.743	0.311	SALIVATION	lure	n/a	1	n/a
453.06	0.745	WATCHMAKER	lure	n/a	1	n/a
453.81	0.578	DESIGNER	lure	n/a	1	n/a
454.393	0.318	ORATOR	lure	n/a	1	n/a
454.726	0.348	PIGEONHOLE	lure	n/a	1	n/a
455.093	0.89	AFFIX	lure	n/a	1	n/a
455.993	0.502	PIGTAIL	lure	n/a	1	n/a
456.51	0.601	LEAF	short	n/a	1	n/a
457.126	0.52	CONVEYANCE	lure	n/a	1	n/a
457.66	0.651	ROOF	lure	n/a	1	n/a
458.326	0.366	WAIVER	lure	n/a	1	n/a
458.71	0.55	XYLOPHONE	lure	n/a	1	n/a
459.276	0.518	CRAFTER	lure	n/a	1	n/a
459.81	0.34	SUPPLEMENT	lure	n/a	1	n/a
460.16	0.336	SALESGIRL	lure	n/a	1	n/a
460.576	0.435	SWEETIE	lure	n/a	1	n/a
461.026	0.958	GHOST	lure	n/a	1	n/a
461.993	0.501	CAPE	lure	n/a	1	n/a
462.51	1.004	PLUM	fruit	detect	1	911
463.526	0.389	SERENITY	lure	n/a	1	n/a
463.926	0.389	DREAMWORLD	lure	n/a	1	n/a
464.327	0.572	WORKBASKET	lure	n/a	1	n/a
464.91	0.704	MAGNESIA	lure	n/a	1	n/a
465.626	0.621	ELITE	lure	n/a	1	n/a
466.26	0.386	SPOTLIGHT	lure	n/a	1	n/a
466.659	0.635	POKER	lure	n/a	1	n/a
467.309	0.333	HERTZ	lure	n/a	1	n/a
467.659	0.717	NIGHTFALL	lure	n/a	1	n/a
468.393	0.4	HANGER	lure	n/a	1	n/a
468.809	0.744	EXPERT	lure	n/a	1	n/a
469.559	0.526	CADENCE	lure	n/a	1	n/a
470.093	0.44	CITY	lure	n/a	1	n/a
470.543	0.363	INTELLECT	lure	n/a	1	n/a
470.909	0.691	BARON	lure	n/a	1	n/a
471.609	0.368	GRAM	lure	n/a	1	n/a
472.059	0.672	FARMER	lure	n/a	1	n/a
472.743	0.458	BANISHMENT	lure	n/a	1	n/a
473.212	0.763	COUNTY	lure	n/a	1	n/a
473.993	0.501	RANCH	lure	n/a	1	n/a
474.509	2.003	CURTAIN	long	n/a	1	n/a
476.526	0.653	SUNTAN	lure	n/a	1	n/a
477.193	0.635	WELLSPRING	lure	n/a	1	n/a
477.843	0.514	DIVA	lure	n/a	1	n/a
478.359	0.353	CRUELTY	lure	n/a	1	n/a
478.726	0.511	PROPHECY	lure	n/a	1	n/a
479.243	0.717	AURORA	lure	n/a	1	n/a
479.976	0.557	BELL	lure	n/a	1	n/a
480.543	0.677	KIDNAPPER	lure	n/a	1	n/a
481.226	0.749	BRUTE	lure	n/a	1	n/a
481.993	0.502	TEMPTER	lure	n/a	1	n/a
482.509	1.005	PLUM	fruit	detect	1	744
483.526	0.542	WEDLOCK	lure	n/a	1	n/a
484.08	0.735	FLAPPER	lure	n/a	1	n/a
484.826	0.556	PLANTATION	lure	n/a	1	n/a
485.393	0.454	ROSEMARY	lure	n/a	1	n/a
485.926	0.696	TURNER	lure	n/a	1	n/a
486.626	0.307	WISHBONE	lure	n/a	1	n/a
486.947	0.595	DAYBED	lure	n/a	1	n/a
487.559	0.735	BLENDER	lure	n/a	1	n/a
488.309	0.5	SUBSIDENCE	lure	n/a	1	n/a
488.826	0.45	FREELOADER	lure	n/a	1	n/a
489.292	0.664	MICE	lure	n/a	1	n/a
489.976	0.352	TROUGH	lure	n/a	1	n/a
490.342	0.433	TOWNSFOLK	lure	n/a	1	n/a
490.792	0.696	STOCKMAN	lure	n/a	1	n/a
491.493	0.324	FOREARM	lure	n/a	1	n/a
491.826	0.397	EXPO	lure	n/a	1	n/a
492.226	0.654	PHENOMENA	lure	n/a	1	n/a
492.892	0.331	SCORPION	lure	n/a	1	n/a
493.242	0.686	COMMITTEE	lure	n/a	1	n/a
493.942	0.526	VOODOO	lure	n/a	1	n/a
494.476	0.584	QUANTUM	lure	n/a	1	n/a
495.076	0.9	INTRICACY	lure	n/a	1	n/a
495.992	0.5	INSERTION	lure	n/a	1	n/a
496.509	2.002	PISTOL	long	n/a	1	n/a
498.593	0.714	ANTIPATHY	lure	n/a	1	n/a
499.309	0.445	JACKAL	lure	n/a	1	n/a
499.759	0.496	TRADESMAN	lure	n/a	1	n/a
500.259	0.449	TENDENCY	lure	n/a	1	n/a
500.726	0.403	MARKDOWN	lure	n/a	1	n/a
501.142	0.55	PILLOWCASE	lure	n/a	1	n/a
501.709	0.266	VISITATION	lure	n/a	1	n/a
501.992	0.501	SUNSHINE	lure	n/a	1	n/a
502.509	1.005	BERRY	fruit	detect	1	832
503.526	0.326	OATH	lure	n/a	1	n/a
503.859	0.634	STEEPLE	lure	n/a	1	n/a
504.509	0.446	ALFALFA	lure	n/a	1	n/a
504.959	0.669	BLOCKHOUSE	lure	n/a	1	n/a
505.642	0.47	TITAN	lure	n/a	1	n/a
506.126	0.461	PURSUER	lure	n/a	1	n/a
506.592	0.484	HORN	lure	n/a	1	n/a
507.092	0.7	RAY	lure	n/a	1	n/a
507.809	0.35	REDWOOD	lure	n/a	1	n/a
508.176	0.394	MOBILITY	lure	n/a	1	n/a
508.576	0.505	BLUEFISH	lure	n/a	1	n/a
509.159	0.687	ACTIVISM	lure	n/a	1	n/a
509.859	0.31	CUMULATION	lure	n/a	1	n/a
510.176	0.44	SEAWALL	lure	n/a	1	n/a
510.626	0.354	AUTISM	lure	n/a	1	n/a
510.992	0.521	SESSION	lure	n/a	1	n/a
511.526	0.382	LYNX	lure	n/a	1	n/a
511.926	0.435	COHORT	lure	n/a	1	n/a
512.376	0.331	UNDERTONE	lure	n/a	1	n/a
512.709	0.576	PLAYOFF	lure	n/a	1	n/a
513.296	0.686	DENTISTRY	lure	n/a	1	n/a
513.992	0.502	HOSTAGE	lure	n/a	1	n/a
514.509	2.002	GALLON	long	n/a	1	n/a
516.525	0.445	BASEMAN	lure	n/a	1	n/a
516.975	0.698	MISFIT	lure	n/a	1	n/a
517.692	0.515	BROTHEL	lure	n/a	1	n/a
518.225	0.635	SMUDGE	lure	n/a	1	n/a
518.875	0.447	BEACH	lure	n/a	1	n/a
519.325	0.534	HILARITY	lure	n/a	1	n/a
519.875	0.728	REFERENDUM	lure	n/a	1	n/a
520.609	0.421	SIDEKICK	lure	n/a	1	n/a
521.109	0.368	SMOKER	lure	n/a	1	n/a
521.492	0.571	MICROSCOPY	lure	n/a	1	n/a
522.075	0.377	YESTERYEAR	lure	n/a	1	n/a
522.459	0.489	RAGTIME	lure	n/a	1	n/a
522.96	0.433	FROCK	lure	n/a	1	n/a
523.409	0.565	PHONECALL	lure	n/a	1	n/a
523.992	0.502	DAISY	lure	n/a	1	n/a
524.509	0.602	TICKET	short	n/a	1	n/a
525.125	0.385	COMMUNISM	lure	n/a	1	n/a
525.525	0.67	TREATMENT	lure	n/a	1	n/a
526.209	0.368	LETTERMAN	lure	n/a	1	n/a
526.592	0.502	SWINDLER	lure	n/a	1	n/a
527.109	0.586	PROFESSION	lure	n/a	1	n/a
527.709	0.431	GUMBO	lure	n/a	1	n/a
528.142	0.552	AIRSPACE	lure	n/a	1	n/a
528.709	0.373	REPOSITORY	lure	n/a	1	n/a
529.092	0.686	BLACKJACK	lure	n/a	1	n/a
529.792	0.655	SYMPHONY	lure	n/a	1	n/a
530.459	0.424	MENAGERIE	lure	n/a	1	n/a
530.892	0.544	CONTRACT	lure	n/a	1	n/a
531.525	0.51	THING	lure	n/a	1	n/a
532.042	0.531	SHORTCUT	lure	n/a	1	n/a
532.575	0.375	RADIATOR	lure	n/a	1	n/a
532.962	0.5	CATHEDRAL	lure	n/a	1	n/a
533.475	0.439	TURNOVER	lure	n/a	1	n/a
533.925	0.57	WATERFRONT	lure	n/a	1	n/a
534.509	0.435	NONPAYMENT	lure	n/a	1	n/a
534.959	0.463	MERMAID	lure	n/a	1	n/a
535.425	0.684	DESCENDANT	lure	n/a	1	n/a
536.125	0.305	BELLMAN	lure	n/a	1	n/a
536.442	0.577	FLAIR	lure	n/a	1	n/a
537.025	0.415	DANDELION	lure	n/a	1	n/a
537.459	0.413	TRANCE	lure	n/a	1	n/a
537.875	0.48	PORPOISE	lure	n/a	1	n/a
538.359	0.739	TASSEL	lure	n/a	1	n/a
539.108	0.456	DESSERT	lure	n/a	1	n/a
539.575	0.728	BLADE	lure	n/a	1	n/a
540.308	0.34	COUNTRY	lure	n/a	1	n/a
540.661	0.575	SHOCKWAVE	lure	n/a	1	n/a
541.242	0.742	REFINEMENT	lure	n/a	1	n/a
542.059	0.324	SAUCER	lure	n/a	1	n/a
542.392	0.59	EXCERPT	lure	n/a	1	n/a
542.992	0.318	CONDOR	lure	n/a	1	n/a
543.325	0.502	STOPPAGE	lure	n/a	1	n/a
543.842	0.527	BYLAW	lure	n/a	1	n/a
544.375	0.326	COMMUNE	lure	n/a	1	n/a
544.708	0.723	COMMITMENT	lure	n/a	1	n/a
545.442	0.435	TOPSIDE	lure	n/a	1	n/a
545.892	0.405	LUMBERYARD	lure	n/a	1	n/a
546.308	0.363	BOILER	lure	n/a	1	n/a
546.675	0.659	RECORDER	lure	n/a	1	n/a
547.345	0.47	WORKHOUSE	lure	n/a	1	n/a
547.825	0.335	SCOREBOARD	lure	n/a	1	n/a
548.175	0.728	KEG	lure	n/a	1	n/a
548.908	0.494	SPACER	lure	n/a	1	n/a
549.408	0.72	BUCKSKIN	lure	n/a	1	n/a
550.142	0.724	ROTUNDA	lure	n/a	1	n/a
550.876	0.379	LOTTO	lure	n/a	1	n/a
551.258	0.375	HOMOPHONE	lure	n/a	1	n/a
551.646	0.486	FOOTSTEP	lure	n/a	1	n/a
552.208	0.48	FANFARE	lure	n/a	1	n/a