onset	duration	cue	cond	resp	acc	RT
4.049	0.479	TINFOIL	lure	n/a	1	n/a
4.532	0.719	STANDPOINT	lure	n/a	1	n/a
5.266	0.733	HOBBY	lure	n/a	1	n/a
6.016	0.502	MACE	lure	n/a	1	n/a
6.532	0.602	TICKET	short	n/a	1	n/a
7.149	0.329	ARISTOCRAT	lure	n/a	1	n/a
7.482	0.403	PREMISE	lure	n/a	1	n/a
7.899	0.617	WARSHIP	lure	n/a	1	n/a
8.532	0.719	ROOD	lure	n/a	1	n/a
9.265	0.389	MINISTRY	lure	n/a	1	n/a
9.665	0.572	DESERT	lure	n/a	1	n/a
10.25	0.427	ARBITRATOR	lure	n/a	1	n/a
10.682	0.429	SACCHARIN	lure	n/a	1	n/a
11.115	0.373	PASSAGE	lure	n/a	1	n/a
11.5	0.441	SUPREMACY	lure	n/a	1	n/a
11.949	0.442	VITAMIN	lure	n/a	1	n/a
12.399	0.752	TERRITORY	lure	n/a	1	n/a
13.232	0.767	COLLEAGUE	lure	n/a	1	n/a
14.015	0.5	TROUSER	lure	n/a	1	n/a
14.532	0.601	LEAF	short	n/a	1	n/a
15.149	0.66	SUFFERER	lure	n/a	1	n/a
15.815	0.698	ALTERATION	lure	n/a	1	n/a
16.532	0.443	OZONE	lure	n/a	1	n/a
16.982	0.701	INFORMER	lure	n/a	1	n/a
17.699	0.434	TOXICITY	lure	n/a	1	n/a
18.149	0.419	CHOIRBOY	lure	n/a	1	n/a
18.582	0.714	ALCHEMIST	lure	n/a	1	n/a
19.315	0.615	DOLT	lure	n/a	1	n/a
19.949	0.619	CELL	lure	n/a	1	n/a
20.582	0.34	SODA	lure	n/a	1	n/a
20.932	0.739	PULLEY	lure	n/a	1	n/a
21.682	0.317	REDUNDANCY	lure	n/a	1	n/a
22.015	0.503	APOLOGIST	lure	n/a	1	n/a
22.532	2.001	ORNAMENT	long	n/a	1	n/a
24.549	0.684	ADHESION	lure	n/a	1	n/a
25.249	0.687	INCEPTION	lure	n/a	1	n/a
25.949	0.751	CORNCOB	lure	n/a	1	n/a
26.782	0.415	LOLLY	lure	n/a	1	n/a
27.215	0.458	REPERTOIRE	lure	n/a	1	n/a
27.685	0.66	PRELUDE	lure	n/a	1	n/a
28.349	0.586	NEWSPRINT	lure	n/a	1	n/a
28.949	0.479	TOENAIL	lure	n/a	1	n/a
29.432	0.567	ASSIGNMENT	lure	n/a	1	n/a
30.015	0.501	FEET	lure	n/a	1	n/a
30.532	1.004	PLUM	fruit	detect	1	905
31.548	0.487	DECENCY	lure	n/a	1	n/a
32.049	0.524	MILLILITER	lure	n/a	1	n/a
32.582	0.408	DRIFTER	lure	n/a	1	n/a
32.999	0.322	CESSION	lure	n/a	1	n/a
33.332	0.454	CHAPEL	lure	n/a	1	n/a
33.798	0.537	POODLE	lure	n/a	1	n/a
34.348	0.693	COWHIDE	lure	n/a	1	n/a
35.048	0.75	SUBJECTION	lure	n/a	1	n/a
35.815	0.467	INEQUITY	lure	n/a	1	n/a
36.298	0.661	HANDMAIDEN	lure	n/a	1	n/a
36.965	0.44	CANOPY	lure	n/a	1	n/a
37.416	0.686	ACETONE	lure	n/a	1	n/a
38.198	0.608	ENSEMBLE	lure	n/a	1	n/a
38.815	0.585	TURNTABLE	lure	n/a	1	n/a
39.415	0.482	RELEVANCE	lure	n/a	1	n/a
39.915	0.622	STAIRCASE	lure	n/a	1	n/a
40.548	0.542	ORCHID	lure	n/a	1	n/a
41.098	0.484	TRANSIENCE	lure	n/a	1	n/a
41.598	0.401	PRAYER	lure	n/a	1	n/a
42.015	0.502	TRADESMEN	lure	n/a	1	n/a
42.532	2.003	STADIUM	long	n/a	1	n/a
44.548	0.71	GASOLINE	lure	n/a	1	n/a
45.265	0.723	CONFORMITY	lure	n/a	1	n/a
45.998	0.496	HANGMAN	lure	n/a	1	n/a
46.498	0.326	PATHWAY	lure	n/a	1	n/a
46.832	0.627	PAINTBOX	lure	n/a	1	n/a
47.465	0.379	ADOPTION	lure	n/a	1	n/a
47.848	0.365	SLANG	lure	n/a	1	n/a
48.232	0.391	NORMALCY	lure	n/a	1	n/a
48.632	0.714	CUSTODIAN	lure	n/a	1	n/a
49.348	0.65	SCARF	lure	n/a	1	n/a
50.015	0.503	EMBLEM	lure	n/a	1	n/a
50.598	1.003	LIME	fruit	detect	1	838
51.615	0.568	JUDICIARY	lure	n/a	1	n/a
52.198	0.572	BOWEL	lure	n/a	1	n/a
52.782	0.377	FATHERHOOD	lure	n/a	1	n/a
53.165	0.535	WOMBAT	lure	n/a	1	n/a
53.715	0.679	PAINTWORK	lure	n/a	1	n/a
54.398	0.354	CRICKET	lure	n/a	1	n/a
54.765	0.401	JOKER	lure	n/a	1	n/a
55.182	0.584	RAT	lure	n/a	1	n/a
55.781	0.629	PINGPONG	lure	n/a	1	n/a
56.415	0.46	LORE	lure	n/a	1	n/a
56.881	0.629	POVERTY	lure	n/a	1	n/a
57.515	0.554	VALE	lure	n/a	1	n/a
58.081	0.437	VIAL	lure	n/a	1	n/a
58.531	0.742	IMPOSITION	lure	n/a	1	n/a
59.281	0.716	SWEATSHOP	lure	n/a	1	n/a
60.015	0.556	PERIMETER	lure	n/a	1	n/a
60.581	0.665	OVERGROWTH	lure	n/a	1	n/a
61.265	0.734	SERVANT	lure	n/a	1	n/a
62.015	0.503	EGGNOG	lure	n/a	1	n/a
62.598	0.602	COAL	short	n/a	1	n/a
63.215	0.389	REVIVAL	lure	n/a	1	n/a
63.615	0.656	MAILMAN	lure	n/a	1	n/a
64.282	0.507	PIZZERIA	lure	n/a	1	n/a
64.802	0.621	ARCHAISM	lure	n/a	1	n/a
65.434	0.354	PLAYROOM	lure	n/a	1	n/a
65.8	0.516	JAG	lure	n/a	1	n/a
66.331	0.742	PERMAFROST	lure	n/a	1	n/a
67.081	0.629	COUNTDOWN	lure	n/a	1	n/a
67.715	0.744	BODY	lure	n/a	1	n/a
68.465	0.329	ZEALOT	lure	n/a	1	n/a
68.815	0.699	PRESERVER	lure	n/a	1	n/a
69.531	0.688	PRESENCE	lure	n/a	1	n/a
70.231	0.504	IRONY	lure	n/a	1	n/a
70.748	0.35	PACESETTER	lure	n/a	1	n/a
71.115	0.885	SCHOOLWORK	lure	n/a	1	n/a
72.015	0.503	BASIL	lure	n/a	1	n/a
72.531	1.005	BLACKBERRY	fruit	detect	1	745
73.548	0.611	PUSHOVER	lure	n/a	1	n/a
74.165	0.751	TANG	lure	n/a	1	n/a
74.998	0.483	EPICENTER	lure	n/a	1	n/a
75.498	0.377	PROVIDENT	lure	n/a	1	n/a
75.881	0.436	PEACETIME	lure	n/a	1	n/a
76.331	0.568	STAMINA	lure	n/a	1	n/a
76.915	0.637	BARBARISM	lure	n/a	1	n/a
77.565	0.731	TALE	lure	n/a	1	n/a
78.318	0.35	OUTREACH	lure	n/a	1	n/a
78.681	0.398	NEUROLOGY	lure	n/a	1	n/a
79.098	0.43	LEOTARD	lure	n/a	1	n/a
79.531	0.741	ROWBOAT	lure	n/a	1	n/a
80.281	0.716	COMPLIMENT	lure	n/a	1	n/a
81.014	0.319	IRONSIDE	lure	n/a	1	n/a
81.348	0.498	GREMLIN	lure	n/a	1	n/a
81.864	0.352	SWORDFISH	lure	n/a	1	n/a
82.231	0.312	WASHBOARD	lure	n/a	1	n/a
82.548	0.489	ADEQUACY	lure	n/a	1	n/a
83.048	0.303	SPITFIRE	lure	n/a	1	n/a
83.365	0.407	TRIBE	lure	n/a	1	n/a
83.781	0.217	PASSAGEWAY	lure	n/a	1	n/a
84.014	0.501	SIGMA	lure	n/a	1	n/a
84.598	2.001	CURTAIN	long	n/a	1	n/a
86.614	0.584	BARLEY	lure	n/a	1	n/a
87.214	0.561	SONOGRAM	lure	n/a	1	n/a
87.781	0.536	SANDER	lure	n/a	1	n/a
88.331	0.698	MILLENNIUM	lure	n/a	1	n/a
89.048	0.658	WASHOUT	lure	n/a	1	n/a
89.714	0.621	ATHEISM	lure	n/a	1	n/a
90.348	0.377	BERET	lure	n/a	1	n/a
90.731	0.552	SPANIEL	lure	n/a	1	n/a
91.298	0.382	GOLF	lure	n/a	1	n/a
91.698	0.478	ORACLE	lure	n/a	1	n/a
92.181	0.424	WASP	lure	n/a	1	n/a
92.614	0.631	TIMIDITY	lure	n/a	1	n/a
93.264	0.735	MAIDEN	lure	n/a	1	n/a
94.014	0.501	SLOTH	lure	n/a	1	n/a
94.531	0.603	BUCKET	short	n/a	1	n/a
95.148	0.682	ORGANISM	lure	n/a	1	n/a
95.848	0.449	DOUBTER	lure	n/a	1	n/a
96.314	0.37	OINTMENT	lure	n/a	1	n/a
96.698	0.328	MISPRINT	lure	n/a	1	n/a
97.114	0.406	AHOY	lure	n/a	1	n/a
97.531	0.479	NEWCOMER	lure	n/a	1	n/a
98.014	0.73	ORIOLE	lure	n/a	1	n/a
98.748	0.388	HORSESHOE	lure	n/a	1	n/a
99.148	0.403	BOOKMOBILE	lure	n/a	1	n/a
99.564	0.459	BUTTONHOOK	lure	n/a	1	n/a
100.034	0.551	DAD	lure	n/a	1	n/a
100.598	0.75	MEMORANDUM	lure	n/a	1	n/a
101.364	0.665	IMPATIENCE	lure	n/a	1	n/a
102.048	0.68	SUNBURST	lure	n/a	1	n/a
102.731	0.599	MOOSE	lure	n/a	1	n/a
103.348	0.651	OBSERVER	lure	n/a	1	n/a
104.014	0.502	SPANNER	lure	n/a	1	n/a
104.531	0.603	LAKE	short	n/a	1	n/a
105.147	0.511	OUTSIDER	lure	n/a	1	n/a
105.664	0.44	CAMERAMAN	lure	n/a	1	n/a
106.114	0.492	FEEDBACK	lure	n/a	1	n/a
106.618	0.387	TOBACCO	lure	n/a	1	n/a
107.014	0.564	SLED	lure	n/a	1	n/a
107.597	0.336	WICK	lure	n/a	1	n/a
108.031	0.32	SYMBOLISM	lure	n/a	1	n/a
108.364	0.724	STOCKROOM	lure	n/a	1	n/a
109.097	0.326	FISHPOND	lure	n/a	1	n/a
109.431	0.321	COMBO	lure	n/a	1	n/a
109.764	0.493	WOMEN	lure	n/a	1	n/a
110.264	0.702	COWARDICE	lure	n/a	1	n/a
110.981	0.644	HONESTY	lure	n/a	1	n/a
111.631	0.36	PAPERBACK	lure	n/a	1	n/a
111.997	0.502	DECEDENT	lure	n/a	1	n/a
112.514	2.001	PISTOL	long	n/a	1	n/a
114.531	0.463	PALEFACE	lure	n/a	1	n/a
115.014	0.649	GENERALITY	lure	n/a	1	n/a
115.681	0.665	PATRON	lure	n/a	1	n/a
116.364	0.58	MEMENTO	lure	n/a	1	n/a
116.947	0.515	ANOMALY	lure	n/a	1	n/a
117.481	0.719	STRATEGIST	lure	n/a	1	n/a
118.214	0.317	TIGHTROPE	lure	n/a	1	n/a
118.547	0.445	ROBBER	lure	n/a	1	n/a
118.997	0.995	LACROSSE	lure	n/a	1	n/a
119.997	0.502	ENVELOPE	lure	n/a	1	n/a
120.581	2.003	GRAVEL	long	n/a	1	n/a
122.597	0.408	VERB	lure	n/a	1	n/a
123.014	0.51	NEARSIDE	lure	n/a	1	n/a
123.531	0.503	ESQUIRE	lure	n/a	1	n/a
124.047	0.496	RECTIFIER	lure	n/a	1	n/a
124.547	0.553	BRICKYARD	lure	n/a	1	n/a
125.114	0.57	HARMONICA	lure	n/a	1	n/a
125.697	0.302	ANIMAL	lure	n/a	1	n/a
126.014	0.503	BRAZIER	lure	n/a	1	n/a
126.531	2.002	BRAKE	long	n/a	1	n/a
128.547	0.548	MORTUARY	lure	n/a	1	n/a
129.114	0.558	TOPSOIL	lure	n/a	1	n/a
129.681	0.361	OPTIMIST	lure	n/a	1	n/a
130.047	0.639	BOOSTER	lure	n/a	1	n/a
130.697	0.633	SIXPENCE	lure	n/a	1	n/a
131.347	0.463	MISSY	lure	n/a	1	n/a
131.814	0.185	SEAPLANE	lure	n/a	1	n/a
132.014	0.501	DUET	lure	n/a	1	n/a
132.53	1.006	CRANBERRY	fruit	detect	1	754
133.547	0.496	VESTIBULE	lure	n/a	1	n/a
134.13	0.54	THYROID	lure	n/a	1	n/a
134.68	0.47	SURFBOARD	lure	n/a	1	n/a
135.164	0.514	SILICONE	lure	n/a	1	n/a
135.697	0.341	VIEWER	lure	n/a	1	n/a
136.047	0.644	RIDGE	lure	n/a	1	n/a
136.697	0.579	LIVESTOCK	lure	n/a	1	n/a
137.28	0.747	SAUCEPAN	lure	n/a	1	n/a
138.047	0.733	BETRAYAL	lure	n/a	1	n/a
138.797	0.638	GADGET	lure	n/a	1	n/a
139.447	0.333	SPUD	lure	n/a	1	n/a
139.797	0.745	PASTOR	lure	n/a	1	n/a
140.547	0.542	INTUITION	lure	n/a	1	n/a
141.101	0.484	IMPAIRMENT	lure	n/a	1	n/a
141.597	0.395	ARROGANCE	lure	n/a	1	n/a
141.997	0.503	PANACEA	lure	n/a	1	n/a
142.514	0.603	PIN	short	n/a	1	n/a
143.13	0.609	QUICKSAND	lure	n/a	1	n/a
143.747	0.309	LABYRINTH	lure	n/a	1	n/a
144.064	0.305	PHYSIOLOGY	lure	n/a	1	n/a
144.381	0.415	SIMULATION	lure	n/a	1	n/a
144.88	0.678	STIRRUP	lure	n/a	1	n/a
145.564	0.458	CREWMEN	lure	n/a	1	n/a
146.03	0.596	ABSENCE	lure	n/a	1	n/a
146.63	0.564	FLATTERY	lure	n/a	1	n/a
147.214	0.586	OGRE	lure	n/a	1	n/a
147.814	0.436	ELEVATION	lure	n/a	1	n/a
148.264	0.31	COLLECTOR	lure	n/a	1	n/a
148.58	0.398	COOKBOOK	lure	n/a	1	n/a
148.997	0.399	RIDDANCE	lure	n/a	1	n/a
149.414	0.368	TRIANGLE	lure	n/a	1	n/a
149.797	0.552	PINWHEEL	lure	n/a	1	n/a
150.364	0.498	RAINBOW	lure	n/a	1	n/a
150.88	0.522	HARMONY	lure	n/a	1	n/a
151.414	0.577	REGISTRAR	lure	n/a	1	n/a
151.997	0.502	CLARITY	lure	n/a	1	n/a
152.514	2.003	GALLON	long	n/a	1	n/a
154.53	0.705	COMPANY	lure	n/a	1	n/a
155.247	0.653	STOCKPOT	lure	n/a	1	n/a
155.913	0.691	BOURBON	lure	n/a	1	n/a
156.613	0.481	WINDBAG	lure	n/a	1	n/a
157.18	0.562	TEACAKE	lure	n/a	1	n/a
157.747	0.244	TANTRUM	lure	n/a	1	n/a
157.997	0.502	ANTONYM	lure	n/a	1	n/a
158.513	1.003	PLUM	fruit	n/a	0	n/a
159.53	0.439	DOE	lure	detect	0	3
159.98	0.39	LANDLORD	lure	n/a	1	n/a
160.38	0.387	GOSPEL	lure	n/a	1	n/a
160.78	0.72	RAINDROP	lure	n/a	1	n/a
161.513	0.315	BINGO	lure	n/a	1	n/a
161.847	0.549	HATCHERY	lure	n/a	1	n/a
162.413	0.512	EAGLE	lure	n/a	1	n/a
162.93	0.389	ABBOT	lure	n/a	1	n/a
163.33	0.663	STEREO	lure	n/a	1	n/a
163.997	0.528	DARLING	lure	n/a	1	n/a
164.53	0.456	AUTOLOADER	lure	n/a	1	n/a
164.997	0.398	BEESWAX	lure	n/a	1	n/a
165.413	0.354	WALLBOARD	lure	n/a	1	n/a
165.78	0.433	AMBULANCE	lure	n/a	1	n/a
166.23	0.584	SIGNALMAN	lure	n/a	1	n/a
166.83	0.633	PACKAGE	lure	n/a	1	n/a
167.547	0.444	En/aOLLMENT	lure	n/a	1	n/a
167.997	0.502	HAMLET	lure	n/a	1	n/a
168.513	0.601	PYRAMID	short	n/a	1	n/a
169.13	0.682	LETTUCE	lure	n/a	1	n/a
169.83	0.615	TEACHER	lure	n/a	1	n/a
170.463	0.506	GARDENER	lure	n/a	1	n/a
170.98	0.305	RESPONSE	lure	n/a	1	n/a
171.297	0.515	FINESSE	lure	n/a	1	n/a
171.83	0.437	THEORIST	lure	n/a	1	n/a
172.28	0.635	HORSEHAIR	lure	n/a	1	n/a
172.93	0.332	TOUPEE	lure	n/a	1	n/a
173.283	0.334	BEDPOST	lure	n/a	1	n/a
173.63	0.507	INFAMY	lure	n/a	1	n/a
174.147	0.431	SPOKESMEN	lure	n/a	1	n/a
174.597	0.686	RARITY	lure	n/a	1	n/a
175.297	0.604	RAFT	lure	n/a	1	n/a
175.913	0.077	GUNSLINGER	lure	n/a	1	n/a
175.997	0.501	REACTOR	lure	n/a	1	n/a
176.513	0.602	BANNER	short	n/a	1	n/a
177.13	0.356	PRIMACY	lure	n/a	1	n/a
177.58	0.657	LIBERALITY	lure	n/a	1	n/a
178.246	0.551	ROBIN	lure	n/a	1	n/a
178.813	0.357	BOUQUET	lure	n/a	1	n/a
179.18	0.696	SESAME	lure	n/a	1	n/a
179.88	0.48	PLASM	lure	n/a	1	n/a
180.38	0.314	SHIPMENT	lure	n/a	1	n/a
180.713	0.662	RINGSIDE	lure	n/a	1	n/a
181.38	0.567	MARSUPIAL	lure	n/a	1	n/a
181.963	0.68	CEMETERY	lure	n/a	1	n/a
182.646	0.674	FEMUR	lure	n/a	1	n/a
183.334	0.388	CHERUB	lure	n/a	1	n/a
183.733	0.309	MERCER	lure	n/a	1	n/a
184.046	0.486	ZEST	lure	n/a	1	n/a
184.546	0.428	BANDSTAND	lure	n/a	1	n/a
184.98	1.011	REGION	lure	n/a	1	n/a
185.996	0.502	UNION	lure	n/a	1	n/a
186.513	0.602	BRIDGE	short	n/a	1	n/a
187.13	0.521	TROOPSHIP	lure	n/a	1	n/a
187.663	0.415	DISK	lure	n/a	1	n/a
188.096	0.46	DISCOURSE	lure	n/a	1	n/a
188.646	0.585	HANDFUL	lure	n/a	1	n/a
189.246	0.588	PONY	lure	n/a	1	n/a
189.846	0.607	FLUX	lure	n/a	1	n/a
190.465	0.613	GASMASK	lure	n/a	1	n/a
191.096	0.593	BIGHEAD	lure	n/a	1	n/a
191.696	0.466	BASSET	lure	n/a	1	n/a
192.18	0.327	REIN	lure	n/a	1	n/a
192.513	0.326	GUNBOAT	lure	n/a	1	n/a
192.846	0.637	EMERGENCY	lure	n/a	1	n/a
193.496	0.493	PAPERBOY	lure	n/a	1	n/a
193.996	0.502	LINEMEN	lure	n/a	1	n/a
194.513	2.002	CHALK	long	n/a	1	n/a
196.53	0.642	CROCKERY	lure	n/a	1	n/a
197.184	0.636	INVESTOR	lure	n/a	1	n/a
197.832	0.601	POINSETTIA	lure	n/a	1	n/a
198.446	0.435	SYMPTOM	lure	n/a	1	n/a
198.896	0.398	FILMSTRIP	lure	n/a	1	n/a
199.313	0.668	CAPITAL	lure	n/a	1	n/a
199.996	0.308	BUSTLE	lure	n/a	1	n/a
200.313	0.744	PRIMER	lure	n/a	1	n/a
201.146	0.845	LETTERHEAD	lure	n/a	1	n/a
201.996	0.502	BRA	lure	n/a	1	n/a
202.513	0.603	SPARK	short	n/a	1	n/a
203.129	0.554	MAYOR	lure	n/a	1	n/a
203.696	0.382	PARCEL	lure	n/a	1	n/a
204.096	0.707	STALLION	lure	n/a	1	n/a
204.813	0.703	BOOKIE	lure	n/a	1	n/a
205.529	0.369	MARTYRDOM	lure	n/a	1	n/a
205.913	0.608	NETTLE	lure	n/a	1	n/a
206.53	0.465	PRAT	lure	n/a	1	n/a
207.013	0.575	RUBDOWN	lure	n/a	1	n/a
207.596	0.501	CLOSET	lure	n/a	1	n/a
208.113	0.422	ASSOn/aCE	lure	n/a	1	n/a
208.546	0.345	BLOWFISH	lure	n/a	1	n/a
208.896	0.585	BEAST	lure	n/a	1	n/a
209.496	0.672	ATROCITY	lure	n/a	1	n/a
210.179	0.538	ASSUMPTION	lure	n/a	1	n/a
210.729	0.575	TURBAN	lure	n/a	1	n/a
211.316	0.675	BREAKAGE	lure	n/a	1	n/a
211.996	0.503	TURBINE	lure	n/a	1	n/a
212.579	2.001	MAZE	long	n/a	1	n/a
214.596	0.582	BULL	lure	n/a	1	n/a
215.196	0.463	BREAKER	lure	n/a	1	n/a
215.663	0.749	REVENGE	lure	n/a	1	n/a
216.429	0.582	FREEDMEN	lure	n/a	1	n/a
217.029	0.689	INFINITIVE	lure	n/a	1	n/a
217.729	0.749	SEABOARD	lure	n/a	1	n/a
218.496	0.625	HOUSEWORK	lure	n/a	1	n/a
219.129	0.647	FLASHLIGHT	lure	n/a	1	n/a
219.796	0.194	LOCALE	lure	n/a	1	n/a
219.996	0.502	DINGO	lure	n/a	1	n/a
220.513	1.002	ELDERBERRY	fruit	detect	1	852
221.529	0.454	STEAMSHIP	lure	n/a	1	n/a
221.996	0.735	EYEBROW	lure	n/a	1	n/a
222.746	0.391	WITCH	lure	n/a	1	n/a
223.146	0.707	BROWNSTONE	lure	n/a	1	n/a
223.863	0.538	PORTRAIT	lure	n/a	1	n/a
224.413	0.48	THEOLOGY	lure	n/a	1	n/a
224.896	0.629	BONNET	lure	n/a	1	n/a
225.529	0.702	BEACON	lure	n/a	1	n/a
226.329	0.426	DELIVERY	lure	n/a	1	n/a
226.763	0.684	INFLUENZA	lure	n/a	1	n/a
227.462	0.535	BURGLARY	lure	n/a	1	n/a
228.012	0.412	FALLOFF	lure	n/a	1	n/a
228.429	0.691	POSTCARD	lure	n/a	1	n/a
229.129	0.449	HEREDITY	lure	n/a	1	n/a
229.596	0.415	PROWLER	lure	n/a	1	n/a
230.029	0.438	WHARF	lure	n/a	1	n/a
230.479	0.38	DUALISM	lure	n/a	1	n/a
230.863	1.129	INNING	lure	n/a	1	n/a
231.996	0.502	DUNE	lure	n/a	1	n/a
232.512	2.001	PUPPET	long	n/a	1	n/a
234.529	0.357	FARMYARD	lure	n/a	1	n/a
234.898	0.586	MIDGET	lure	n/a	1	n/a
235.496	0.517	DOLLHOUSE	lure	n/a	1	n/a
236.029	0.586	LAPEL	lure	n/a	1	n/a
236.629	0.33	SPECTATOR	lure	n/a	1	n/a
236.962	0.535	REMOVAL	lure	n/a	1	n/a
237.512	0.305	SHEEP	lure	n/a	1	n/a
237.829	0.545	PALETTE	lure	n/a	1	n/a
238.462	0.672	OFFENSE	lure	n/a	1	n/a
239.146	0.687	TAKER	lure	n/a	1	n/a
239.846	0.437	ERA	lure	n/a	1	n/a
240.296	0.382	PROTESTER	lure	n/a	1	n/a
240.696	0.7	UNCLE	lure	n/a	1	n/a
241.412	0.41	CHESSBOARD	lure	n/a	1	n/a
241.829	0.487	OAF	lure	n/a	1	n/a
242.329	0.654	PLOY	lure	n/a	1	n/a
242.996	0.511	WOODYARD	lure	n/a	1	n/a
243.515	0.578	DUDE	lure	n/a	1	n/a
244.112	0.384	INCUBATOR	lure	n/a	1	n/a
244.512	0.468	TUNDRA	lure	n/a	1	n/a
244.996	0.312	BREEDER	lure	n/a	1	n/a
245.312	0.597	DUNCE	lure	n/a	1	n/a
245.929	0.408	BANQUET	lure	n/a	1	n/a
246.346	0.651	CELERY	lure	n/a	1	n/a
247.012	0.491	CINNAMON	lure	n/a	1	n/a
247.512	0.34	LIBERATOR	lure	n/a	1	n/a
247.862	0.387	MESSAGE	lure	n/a	1	n/a
248.262	0.433	SURNAME	lure	n/a	1	n/a
248.779	0.749	FOLLOWER	lure	n/a	1	n/a
249.546	0.643	THEATER	lure	n/a	1	n/a
250.2	0.315	FAIRYLAND	lure	n/a	1	n/a
250.529	0.619	CREATURE	lure	n/a	1	n/a
251.162	0.342	RETRIEVAL	lure	n/a	1	n/a
251.512	0.623	THEFT	lure	n/a	1	n/a
252.145	0.695	PROSTATE	lure	n/a	1	n/a
252.845	0.621	EUPHORIA	lure	n/a	1	n/a
253.479	0.64	SOLACE	lure	n/a	1	n/a
254.131	0.628	HANDBAG	lure	n/a	1	n/a
254.762	0.416	MISFORTUNE	lure	n/a	1	n/a
255.195	0.417	BOARDER	lure	n/a	1	n/a
255.629	0.38	VIRTUE	lure	n/a	1	n/a
256.012	0.315	UPSTART	lure	n/a	1	n/a
256.345	0.588	CONFESSOR	lure	n/a	1	n/a
256.945	0.7	VIXEN	lure	n/a	1	n/a
257.662	0.365	NUN	lure	n/a	1	n/a
268.029	0.697	ANTLER	lure	n/a	1	n/a
268.745	0.408	ECLIPSE	lure	n/a	1	n/a
269.162	0.83	HERO	lure	n/a	1	n/a
270.079	0.501	HEADPIECE	lure	n/a	1	n/a
270.612	0.601	PIN	short	n/a	1	n/a
271.229	0.73	INDUSTRY	lure	n/a	1	n/a
271.962	0.419	RAISER	lure	n/a	1	n/a
272.395	0.31	CLAPPER	lure	n/a	1	n/a
272.712	0.698	CUCKOO	lure	n/a	1	n/a
273.429	0.498	NOZZLE	lure	n/a	1	n/a
273.945	0.67	BIGAMIST	lure	n/a	1	n/a
274.629	0.35	TRILOGY	lure	n/a	1	n/a
274.995	0.343	LOCKSMITH	lure	n/a	1	n/a
275.349	0.414	DEER	lure	n/a	1	n/a
275.779	0.592	COCA	lure	n/a	1	n/a
276.378	0.728	CONCORD	lure	n/a	1	n/a
277.112	0.662	PATTY	lure	n/a	1	n/a
277.779	0.213	AMMUNITION	lure	n/a	1	n/a
277.995	0.503	WEEKNIGHT	lure	n/a	1	n/a
278.512	1.004	PEACH	fruit	detect	1	885
279.528	0.58	KIDDER	lure	n/a	1	n/a
280.112	0.676	FISHBONE	lure	n/a	1	n/a
280.795	0.705	BREASTBONE	lure	n/a	1	n/a
281.578	0.335	JAWBREAKER	lure	n/a	1	n/a
281.928	0.504	SKYWAY	lure	n/a	1	n/a
282.445	0.5	CADDIE	lure	n/a	1	n/a
282.962	0.588	QUOTA	lure	n/a	1	n/a
283.562	0.51	CHUTE	lure	n/a	1	n/a
284.078	0.363	PREDATOR	lure	n/a	1	n/a
284.445	0.6	CLOVE	lure	n/a	1	n/a
285.062	0.485	MINUTEMAN	lure	n/a	1	n/a
285.562	0.727	CACHE	lure	n/a	1	n/a
286.295	0.642	VOCALISM	lure	n/a	1	n/a
286.945	0.57	CAPRICE	lure	n/a	1	n/a
287.528	0.476	DENIAL	lure	n/a	1	n/a
288.016	0.574	STAGNATION	lure	n/a	1	n/a
288.595	0.441	GUESTHOUSE	lure	n/a	1	n/a
289.045	0.946	SALESLADY	lure	n/a	1	n/a
289.995	0.501	INKLING	lure	n/a	1	n/a
290.512	0.602	COAL	short	n/a	1	n/a
291.128	0.691	LUNGPOWER	lure	n/a	1	n/a
291.831	0.596	ADOBE	lure	n/a	1	n/a
292.445	0.491	BOOKEND	lure	n/a	1	n/a
293.028	0.324	PAPERWORK	lure	n/a	1	n/a
293.362	0.43	LEPRECHAUN	lure	n/a	1	n/a
293.795	0.593	CALIBER	lure	n/a	1	n/a
294.395	0.54	IMPRINT	lure	n/a	1	n/a
294.945	0.41	REGRESSION	lure	n/a	1	n/a
295.362	0.431	PERSECUTOR	lure	n/a	1	n/a
295.795	0.504	ADAPTATION	lure	n/a	1	n/a
296.312	0.719	CONCEPTION	lure	n/a	1	n/a
297.045	0.354	STAGECOACH	lure	n/a	1	n/a
297.412	0.572	HOUSEBOY	lure	n/a	1	n/a
297.995	0.5	WOMANKIND	lure	n/a	1	n/a
298.512	2.002	PISTOL	long	n/a	1	n/a
300.528	0.305	FLORIST	lure	n/a	1	n/a
300.845	0.401	ICEBREAKER	lure	n/a	1	n/a
301.261	0.737	CATERER	lure	n/a	1	n/a
302.012	0.368	ORATION	lure	n/a	1	n/a
302.395	0.326	DEVIANCY	lure	n/a	1	n/a
302.728	0.736	POLICEMAN	lure	n/a	1	n/a
303.478	0.691	BUTLER	lure	n/a	1	n/a
304.178	0.484	GLEANER	lure	n/a	1	n/a
304.745	0.505	PORTRAYAL	lure	n/a	1	n/a
305.261	0.73	PRISONER	lure	n/a	1	n/a
306.011	0.501	MOONBEAM	lure	n/a	1	n/a
306.528	1.001	GOOSEBERRY	fruit	detect	1	869
307.545	0.545	CYNIC	lure	n/a	1	n/a
308.095	0.558	NOVOCAINE	lure	n/a	1	n/a
308.661	0.326	COMPRESSOR	lure	n/a	1	n/a
308.995	0.549	CRUTCH	lure	n/a	1	n/a
309.561	0.693	AEROSPACE	lure	n/a	1	n/a
310.261	0.656	INHIBITOR	lure	n/a	1	n/a
310.928	0.454	MAGNETISM	lure	n/a	1	n/a
311.395	0.636	DIGNITARY	lure	n/a	1	n/a
312.045	0.582	SCHOLAR	lure	n/a	1	n/a
312.645	0.329	GROUNDER	lure	n/a	1	n/a
312.978	0.491	MOVIE	lure	n/a	1	n/a
313.478	0.393	JACKPOT	lure	n/a	1	n/a
313.878	0.517	LADYBUG	lure	n/a	1	n/a
314.411	0.703	FOLKTALE	lure	n/a	1	n/a
315.128	0.733	COLONY	lure	n/a	1	n/a
315.878	0.457	LIGHTHOUSE	lure	n/a	1	n/a
316.428	0.658	BELLFLOWER	lure	n/a	1	n/a
317.095	0.896	HOOF	lure	n/a	1	n/a
317.995	0.501	ALLOTMENT	lure	n/a	1	n/a
318.511	0.603	LEAF	short	n/a	1	n/a
319.128	0.656	BRIBERY	lure	n/a	1	n/a
319.795	0.331	CLERK	lure	n/a	1	n/a
320.145	0.505	PREVALENCE	lure	n/a	1	n/a
320.661	0.639	MEDALLIST	lure	n/a	1	n/a
321.311	0.572	MINDER	lure	n/a	1	n/a
321.895	0.463	SUn/aOOF	lure	n/a	1	n/a
322.361	0.616	RATTLETRAP	lure	n/a	1	n/a
322.995	0.674	ELEPHANT	lure	n/a	1	n/a
323.678	0.556	INCIDENCE	lure	n/a	1	n/a
324.245	0.436	DISPERSION	lure	n/a	1	n/a
324.695	0.396	CARNAGE	lure	n/a	1	n/a
325.095	0.626	RULER	lure	n/a	1	n/a
325.728	0.254	EMPORIUM	lure	n/a	1	n/a
325.994	0.501	FAVORITISM	lure	n/a	1	n/a
326.511	1.001	PINEAPPLE	fruit	n/a	0	n/a
327.528	0.547	TORSO	lure	n/a	1	n/a
328.161	0.537	LICENSEE	lure	n/a	1	n/a
328.711	0.382	CARPORT	lure	n/a	1	n/a
329.111	0.554	DETONATION	lure	n/a	1	n/a
329.678	0.497	EXPANSION	lure	n/a	1	n/a
330.178	0.687	WOMENFOLK	lure	n/a	1	n/a
330.878	0.387	CLOTHESPIN	lure	n/a	1	n/a
331.278	0.708	POTION	lure	n/a	1	n/a
331.994	0.317	TURNIP	lure	n/a	1	n/a
332.328	0.345	SYMMETRY	lure	n/a	1	n/a
332.678	0.561	SARCASM	lure	n/a	1	n/a
333.244	0.349	INHABITANT	lure	n/a	1	n/a
333.611	0.623	HUT	lure	n/a	1	n/a
334.244	0.357	OMEN	lure	n/a	1	n/a
334.611	0.579	BATHTUB	lure	n/a	1	n/a
335.194	0.735	ACCURACY	lure	n/a	1	n/a
335.944	0.495	FIANCEE	lure	n/a	1	n/a
336.444	0.626	SURVEYOR	lure	n/a	1	n/a
337.078	0.906	LOUDMOUTH	lure	n/a	1	n/a
337.994	0.502	DIAMOND	lure	n/a	1	n/a
338.511	2.002	CURTAIN	long	n/a	1	n/a
340.611	0.348	EPIPHANY	lure	n/a	1	n/a
340.978	0.407	WAND	lure	n/a	1	n/a
341.394	0.72	STICKER	lure	n/a	1	n/a
342.128	0.359	NEWSCASTER	lure	n/a	1	n/a
342.494	0.373	DISRESPECT	lure	n/a	1	n/a
342.878	0.453	ACCORDANCE	lure	n/a	1	n/a
343.344	0.542	RECIPE	lure	n/a	1	n/a
343.898	0.084	VASSAL	lure	n/a	1	n/a
343.994	0.503	BLOODHOUND	lure	n/a	1	n/a
344.511	2.001	ORNAMENT	long	n/a	1	n/a
346.528	0.665	SPA	lure	n/a	1	n/a
347.211	0.507	UNICORN	lure	n/a	1	n/a
347.729	0.594	PROJECTOR	lure	n/a	1	n/a
348.328	0.367	UNIT	lure	n/a	1	n/a
348.711	0.363	THEME	lure	n/a	1	n/a
349.078	0.434	ECONOMY	lure	n/a	1	n/a
349.527	0.31	SUNSTROKE	lure	n/a	1	n/a
349.844	0.645	COMMUNION	lure	n/a	1	n/a
350.494	0.695	EYELINER	lure	n/a	1	n/a
351.194	0.675	FIESTA	lure	n/a	1	n/a
351.961	0.029	DILATATION	lure	n/a	1	n/a
351.994	0.503	COSMOLOGY	lure	n/a	1	n/a
352.511	2.001	GALLON	long	n/a	1	n/a
354.527	0.6	RECOMPENSE	lure	n/a	1	n/a
355.144	0.565	REHASH	lure	n/a	1	n/a
355.727	0.538	ROMPER	lure	n/a	1	n/a
356.277	0.352	HEALTH	lure	n/a	1	n/a
356.644	0.379	COFFEE	lure	n/a	1	n/a
357.027	0.51	GASKET	lure	n/a	1	n/a
357.544	0.712	ROSARY	lure	n/a	1	n/a
358.261	0.538	BISQUE	lure	n/a	1	n/a
358.811	0.576	DUNGEON	lure	n/a	1	n/a
359.398	0.345	BAYOU	lure	n/a	1	n/a
359.761	0.377	FINGERNAIL	lure	n/a	1	n/a
360.144	0.533	ROSEBUD	lure	n/a	1	n/a
360.694	0.454	IRRITANT	lure	n/a	1	n/a
361.161	0.831	WHOOPING	lure	n/a	1	n/a
362.011	0.503	STORK	lure	n/a	1	n/a
362.527	0.601	SPARK	short	n/a	1	n/a
363.144	0.598	ASSET	lure	n/a	1	n/a
363.827	0.728	WARMTH	lure	n/a	1	n/a
364.561	0.351	PROCTOR	lure	n/a	1	n/a
364.927	0.475	JOYSTICK	lure	n/a	1	n/a
365.414	0.402	PROVEn/aCE	lure	n/a	1	n/a
365.828	0.418	ETHNOLOGY	lure	n/a	1	n/a
366.261	0.516	POSTSCRIPT	lure	n/a	1	n/a
366.794	0.366	GOVERNMENT	lure	n/a	1	n/a
367.177	0.438	MILL	lure	n/a	1	n/a
367.627	0.653	VIDEOTAPE	lure	n/a	1	n/a
368.294	0.356	TOOTHPICK	lure	n/a	1	n/a
368.661	0.499	FLAMINGO	lure	n/a	1	n/a
369.177	0.805	MARMALADE	lure	n/a	1	n/a
369.994	0.503	MAIDENHEAD	lure	n/a	1	n/a
370.511	0.601	TICKET	short	n/a	1	n/a
371.127	0.601	BUILDER	lure	n/a	1	n/a
371.744	0.376	PRANKSTER	lure	n/a	1	n/a
372.132	0.484	GEYSER	lure	n/a	1	n/a
372.627	0.421	EPOCH	lure	n/a	1	n/a
373.061	0.693	POEM	lure	n/a	1	n/a
373.761	0.596	ARMORY	lure	n/a	1	n/a
374.444	0.329	MAIDENHOOD	lure	n/a	1	n/a
374.777	0.345	CHARMER	lure	n/a	1	n/a
375.127	0.551	SKATER	lure	n/a	1	n/a
375.694	0.512	WHEAT	lure	n/a	1	n/a
376.211	0.396	HOUSEWIFE	lure	n/a	1	n/a
376.611	0.717	CINEMA	lure	n/a	1	n/a
377.344	0.63	PEARL	lure	n/a	1	n/a
377.977	0.596	DAYLIGHT	lure	n/a	1	n/a
378.577	0.585	JOURNEYMAN	lure	n/a	1	n/a
379.177	0.366	ATTAINMENT	lure	n/a	1	n/a
379.56	0.717	DISC	lure	n/a	1	n/a
380.294	0.691	CHECKBOOK	lure	n/a	1	n/a
380.994	0.99	CAROL	lure	n/a	1	n/a
381.994	0.503	BENCH	lure	n/a	1	n/a
382.51	2.002	MAZE	long	n/a	1	n/a
384.527	0.679	DRAWER	lure	n/a	1	n/a
385.21	0.363	REGIME	lure	n/a	1	n/a
385.577	0.44	LEGISLATOR	lure	n/a	1	n/a
386.028	0.519	FOREST	lure	n/a	1	n/a
386.56	0.651	INTERLUDE	lure	n/a	1	n/a
387.31	0.752	HONEYDEW	lure	n/a	1	n/a
388.077	0.514	BRIAR	lure	n/a	1	n/a
388.594	0.474	WHISKER	lure	n/a	1	n/a
389.077	0.343	SHUTDOWN	lure	n/a	1	n/a
389.427	0.555	KINGDOM	lure	n/a	1	n/a
389.994	0.501	COMMANDER	lure	n/a	1	n/a
390.51	2.002	PUPPET	long	n/a	1	n/a
392.527	0.55	INFANCY	lure	n/a	1	n/a
393.094	0.573	EMPLOYEE	lure	n/a	1	n/a
393.677	0.492	MASCARA	lure	n/a	1	n/a
394.177	0.613	PASSBOOK	lure	n/a	1	n/a
394.794	0.53	ARGUMENT	lure	n/a	1	n/a
395.327	0.55	TOUCHDOWN	lure	n/a	1	n/a
395.894	0.539	BLUEJAY	lure	n/a	1	n/a
396.444	0.662	NEEDLEWORK	lure	n/a	1	n/a
397.11	0.662	PRECAUTION	lure	n/a	1	n/a
397.777	0.303	BRUISER	lure	n/a	1	n/a
398.094	0.476	APPLICANT	lure	n/a	1	n/a
398.577	0.367	PUPPETEER	lure	n/a	1	n/a
398.96	0.556	OAT	lure	n/a	1	n/a
399.61	0.371	COMMUNITY	lure	n/a	1	n/a
399.994	0.501	TOMCAT	lure	n/a	1	n/a
400.51	0.603	PYRAMID	short	n/a	1	n/a
401.127	0.327	GRADATION	lure	n/a	1	n/a
401.46	0.565	CONTINENCE	lure	n/a	1	n/a
402.043	0.678	GOULASH	lure	n/a	1	n/a
402.727	0.326	FOLLY	lure	n/a	1	n/a
403.06	0.461	CERVIX	lure	n/a	1	n/a
403.527	0.426	TURBULENCE	lure	n/a	1	n/a
403.96	0.538	MOUTHFUL	lure	n/a	1	n/a
404.51	0.571	CELLOPHANE	lure	n/a	1	n/a
405.093	0.733	BALLET	lure	n/a	1	n/a
405.843	0.433	INGESTION	lure	n/a	1	n/a
406.293	0.651	LOADER	lure	n/a	1	n/a
406.96	1.03	INDIGENCE	lure	n/a	1	n/a
407.993	0.501	SLACKER	lure	n/a	1	n/a
408.51	1.001	STRAWBERRY	fruit	detect	1	967
409.527	0.396	VEST	lure	n/a	1	n/a
409.927	0.324	HEMP	lure	n/a	1	n/a
410.26	0.654	PHYSICIAN	lure	n/a	1	n/a
411.01	0.343	HERDSMAN	lure	n/a	1	n/a
411.36	0.649	STEELMAKER	lure	n/a	1	n/a
412.027	0.62	SCROLLWORK	lure	n/a	1	n/a
412.66	0.324	FLEA	lure	n/a	1	n/a
412.993	0.657	GASLIGHT	lure	n/a	1	n/a
413.66	0.705	INMATE	lure	n/a	1	n/a
414.377	0.455	SLINGER	lure	n/a	1	n/a
414.843	0.388	ATHLETE	lure	n/a	1	n/a
415.243	0.702	TOTALITY	lure	n/a	1	n/a
415.96	0.579	INDENT	lure	n/a	1	n/a
416.543	0.328	GLACIER	lure	n/a	1	n/a
416.877	0.486	DOMICILE	lure	n/a	1	n/a
417.377	0.707	SNOWMAN	lure	n/a	1	n/a
418.093	0.692	SCORECARD	lure	n/a	1	n/a
418.793	0.545	SLAB	lure	n/a	1	n/a
419.343	0.64	SPRAYER	lure	n/a	1	n/a
419.993	0.5	CARDBOARD	lure	n/a	1	n/a
420.51	0.602	BUCKET	short	n/a	1	n/a
421.127	0.649	UNDERSIDE	lure	n/a	1	n/a
421.793	0.306	SWEETHEART	lure	n/a	1	n/a
422.193	0.706	COURTIER	lure	n/a	1	n/a
422.91	0.461	LOCOMOTION	lure	n/a	1	n/a
423.377	0.749	ICICLE	lure	n/a	1	n/a
424.143	0.741	BOASTER	lure	n/a	1	n/a
424.896	0.517	PRESENTER	lure	n/a	1	n/a
425.426	0.704	ILLUSION	lure	n/a	1	n/a
426.143	0.695	VEIN	lure	n/a	1	n/a
426.843	0.701	FORE	lure	n/a	1	n/a
427.56	0.423	DINNERWARE	lure	n/a	1	n/a
427.993	0.501	SPARROW	lure	n/a	1	n/a
428.51	1.002	APPLE	fruit	detect	1	719
429.526	0.432	DRUMBEAT	lure	n/a	1	n/a
429.976	0.419	SNOWFALL	lure	n/a	1	n/a
430.41	0.349	BARRICADE	lure	n/a	1	n/a
430.776	0.352	READER	lure	n/a	1	n/a
431.143	0.72	HANDIWORK	lure	n/a	1	n/a
431.876	0.486	RHINO	lure	n/a	1	n/a
432.376	0.637	MOTORCYCLE	lure	n/a	1	n/a
433.026	0.347	SOCIETY	lure	n/a	1	n/a
433.376	0.505	TRACHEA	lure	n/a	1	n/a
433.976	0.448	EXAMINER	lure	n/a	1	n/a
434.443	0.623	FLAX	lure	n/a	1	n/a
435.078	0.592	INFLATION	lure	n/a	1	n/a
435.676	0.466	SORORITY	lure	n/a	1	n/a
436.16	0.635	PAGEANTRY	lure	n/a	1	n/a
436.81	0.649	KIDDY	lure	n/a	1	n/a
437.476	0.611	CASTE	lure	n/a	1	n/a
438.093	0.425	SCENE	lure	n/a	1	n/a
438.526	0.451	CONTENDER	lure	n/a	1	n/a
438.993	0.991	RESOLUTION	lure	n/a	1	n/a
439.993	0.501	CHIVALRY	lure	n/a	1	n/a
440.51	0.601	LAKE	short	n/a	1	n/a
441.126	0.49	TEAHOUSE	lure	n/a	1	n/a
441.628	0.489	BOXWOOD	lure	n/a	1	n/a
442.128	0.534	INSTRUMENT	lure	n/a	1	n/a
442.676	0.69	IMMUNITY	lure	n/a	1	n/a
443.376	0.565	MATINEE	lure	n/a	1	n/a
443.96	0.356	DADDY	lure	n/a	1	n/a
444.326	0.633	LEAFLET	lure	n/a	1	n/a
444.976	0.383	DINOSAUR	lure	n/a	1	n/a
445.443	0.727	CHILDREN	lure	n/a	1	n/a
446.176	0.459	RAWHIDE	lure	n/a	1	n/a
446.643	0.624	FRAMEWORK	lure	n/a	1	n/a
447.276	0.707	PATRIARCH	lure	n/a	1	n/a
447.993	0.501	SHORTSTOP	lure	n/a	1	n/a
448.509	2.001	GRAVEL	long	n/a	1	n/a
450.526	0.576	LIEU	lure	n/a	1	n/a
451.109	0.387	ACCENT	lure	n/a	1	n/a
451.51	0.655	PEACE	lure	n/a	1	n/a
452.176	0.703	CALCULATOR	lure	n/a	1	n/a
452.893	0.311	DOMINO	lure	n/a	1	n/a
453.209	0.513	PAYLOAD	lure	n/a	1	n/a
453.726	0.65	ANNOUNCER	lure	n/a	1	n/a
454.393	0.535	RICE	lure	n/a	1	n/a
454.943	0.468	BRANDY	lure	n/a	1	n/a
455.426	0.38	COMPLAINT	lure	n/a	1	n/a
455.809	0.313	BASKETWORK	lure	n/a	1	n/a
456.126	0.446	ARTICHOKE	lure	n/a	1	n/a
456.576	0.64	STAG	lure	n/a	1	n/a
457.226	0.757	KING	lure	n/a	1	n/a
458.076	0.502	STATUTE	lure	n/a	1	n/a
458.593	2.003	BRAKE	long	n/a	1	n/a
460.609	0.579	COASTLINE	lure	n/a	1	n/a
461.193	0.368	PLASTICITY	lure	n/a	1	n/a
461.576	0.708	OBSCURITY	lure	n/a	1	n/a
462.293	0.682	REPUTE	lure	n/a	1	n/a
462.993	0.305	MORTAR	lure	n/a	1	n/a
463.309	0.456	SCARFACE	lure	n/a	1	n/a
463.777	0.517	COROLLARY	lure	n/a	1	n/a
464.309	0.599	PREPAYMENT	lure	n/a	1	n/a
464.926	0.61	FINCH	lure	n/a	1	n/a
465.543	0.35	VOLLEYBALL	lure	n/a	1	n/a
465.909	0.61	TYPESCRIPT	lure	n/a	1	n/a
466.526	0.728	WALNUT	lure	n/a	1	n/a
467.259	0.722	SNOBBERY	lure	n/a	1	n/a
467.993	0.5	EVERYBODY	lure	n/a	1	n/a
468.509	0.603	BANNER	short	n/a	1	n/a
469.126	0.653	DANDRUFF	lure	n/a	1	n/a
469.793	0.668	LUMINARY	lure	n/a	1	n/a
470.476	0.569	ORGANIZER	lure	n/a	1	n/a
471.126	0.339	PAVILION	lure	n/a	1	n/a
471.476	0.682	MILITANCY	lure	n/a	1	n/a
472.176	0.45	UPHOLSTERY	lure	n/a	1	n/a
472.642	0.315	ELVER	lure	n/a	1	n/a
472.976	0.622	CARLOAD	lure	n/a	1	n/a
473.61	0.708	PLAYWRIGHT	lure	n/a	1	n/a
474.329	0.381	GUNMEN	lure	n/a	1	n/a
474.726	0.477	MOM	lure	n/a	1	n/a
475.209	0.775	TRAITOR	lure	n/a	1	n/a
475.992	0.501	ILLEGALITY	lure	n/a	1	n/a
476.509	0.601	BRIDGE	short	n/a	1	n/a
477.126	0.567	TEPEE	lure	n/a	1	n/a
477.709	0.685	MATCHBOX	lure	n/a	1	n/a
478.409	0.515	CABARET	lure	n/a	1	n/a
478.942	0.585	TEMPERANCE	lure	n/a	1	n/a
479.542	0.344	ICEPACK	lure	n/a	1	n/a
479.892	0.47	MARKSMAN	lure	n/a	1	n/a
480.376	0.481	FIDELITY	lure	n/a	1	n/a
480.859	0.448	CRATE	lure	n/a	1	n/a
481.326	0.41	CODFISH	lure	n/a	1	n/a
481.826	0.158	ERUPTION	lure	n/a	1	n/a
481.992	0.502	JUNCTURE	lure	n/a	1	n/a
482.509	2.001	STADIUM	long	n/a	1	n/a
484.526	0.449	BOOKSTALL	lure	n/a	1	n/a
484.992	0.391	APRICOT	lure	n/a	1	n/a
485.392	0.331	MAESTRO	lure	n/a	1	n/a
485.726	0.745	MANNEQUIN	lure	n/a	1	n/a
486.476	0.51	AIRFRAME	lure	n/a	1	n/a
486.992	0.482	READOUT	lure	n/a	1	n/a
487.492	0.643	DEVIATION	lure	n/a	1	n/a
488.142	0.601	GATEKEEPER	lure	n/a	1	n/a
488.759	0.72	GONDOLA	lure	n/a	1	n/a
489.492	0.547	TRICOLOR	lure	n/a	1	n/a
490.042	0.591	REPROACH	lure	n/a	1	n/a
490.645	0.626	DERAILMENT	lure	n/a	1	n/a
491.276	0.707	LAD	lure	n/a	1	n/a
491.992	0.501	YOUTH	lure	n/a	1	n/a
492.509	1.004	MULBERRY	fruit	detect	1	752
493.526	0.528	SAWHORSE	lure	n/a	1	n/a
494.059	0.689	NUNNERY	lure	n/a	1	n/a
494.842	0.337	OBVERSE	lure	n/a	1	n/a
495.192	0.63	GRANDEUR	lure	n/a	1	n/a
495.826	0.724	VIGOR	lure	n/a	1	n/a
496.559	0.615	THEOLOGIAN	lure	n/a	1	n/a
497.192	0.544	VALIDITY	lure	n/a	1	n/a
497.742	0.743	BOOKSELLER	lure	n/a	1	n/a
498.492	0.538	SUMMARY	lure	n/a	1	n/a
499.042	0.747	CONCERTO	lure	n/a	1	n/a
499.792	0.341	PARTAKER	lure	n/a	1	n/a
500.142	0.676	REALIST	lure	n/a	1	n/a
500.83	0.61	DURATION	lure	n/a	1	n/a
501.442	0.396	TIMEKEEPER	lure	n/a	1	n/a
501.842	0.338	TWOSOME	lure	n/a	1	n/a
502.192	0.572	CARPENTER	lure	n/a	1	n/a
502.775	0.586	VALVE	lure	n/a	1	n/a
503.375	0.338	TELEPATHY	lure	n/a	1	n/a
503.725	0.659	DILIGENCE	lure	n/a	1	n/a
504.397	0.647	NOTION	lure	n/a	1	n/a
505.059	0.924	BOUNDARY	lure	n/a	1	n/a
505.992	0.502	ROYALE	lure	n/a	1	n/a
506.592	2.002	CHALK	long	n/a	1	n/a
508.609	0.667	THROWER	lure	n/a	1	n/a
509.292	0.69	LEGUME	lure	n/a	1	n/a
509.992	0.329	BRUSHFIRE	lure	n/a	1	n/a
510.325	0.554	PHYSIQUE	lure	n/a	1	n/a
510.892	0.448	NONE	lure	n/a	1	n/a
511.359	0.514	ABSOLUTISM	lure	n/a	1	n/a
511.875	0.697	MILITIA	lure	n/a	1	n/a
512.575	0.46	WARRIOR	lure	n/a	1	n/a
513.042	0.686	DONOR	lure	n/a	1	n/a
513.742	0.452	IMMENSITY	lure	n/a	1	n/a
514.209	0.437	FIN	lure	n/a	1	n/a
514.659	0.732	ENGRAVER	lure	n/a	1	n/a
515.409	0.706	RESIDENCY	lure	n/a	1	n/a
516.127	0.461	BLOWGUN	lure	n/a	1	n/a
516.592	0.691	EJECTOR	lure	n/a	1	n/a
517.294	0.531	HEARTH	lure	n/a	1	n/a
517.842	0.703	TRAVELER	lure	n/a	1	n/a
518.559	0.423	OUTGROWTH	lure	n/a	1	n/a
518.992	0.642	THEOCRACY	lure	n/a	1	n/a
519.725	0.413	CONCLAVE	lure	n/a	1	n/a
520.142	0.63	RIFLEMEN	lure	n/a	1	n/a
520.775	0.545	METHOD	lure	n/a	1	n/a
521.325	0.461	SANCTUARY	lure	n/a	1	n/a
521.792	0.5	SERUM	lure	n/a	1	n/a
522.308	0.601	TEARJERKER	lure	n/a	1	n/a
522.925	0.489	TAXIDERMY	lure	n/a	1	n/a
523.425	0.419	CANISTER	lure	n/a	1	n/a
523.858	0.554	INDUCEMENT	lure	n/a	1	n/a
524.425	0.364	CANYON	lure	n/a	1	n/a
524.808	0.538	REMINDER	lure	n/a	1	n/a
525.359	0.664	TANKER	lure	n/a	1	n/a