onset	duration	stim	cond	resp	acc	RT
4.052	0.543	WARLORD	lure	n/a	1	n/a
4.602	0.408	SOLICITOR	lure	n/a	1	n/a
5.018	0.421	LUCK	lure	n/a	1	n/a
5.452	0.633	EXERTION	lure	n/a	1	n/a
6.102	0.707	CLUMP	lure	n/a	1	n/a
6.818	0.649	CARAMEL	lure	n/a	1	n/a
7.485	0.514	IMMUNOLOGY	lure	n/a	1	n/a
8.018	0.502	COWBOY	lure	n/a	1	n/a
8.552	0.602	BRIDGE	short	n/a	1	n/a
9.168	0.438	OCTANE	lure	n/a	1	n/a
9.618	0.714	MUDSLINGER	lure	n/a	1	n/a
10.352	0.43	MONOXIDE	lure	n/a	1	n/a
10.785	0.48	MONOPOLY	lure	n/a	1	n/a
11.285	0.677	CUPCAKE	lure	n/a	1	n/a
11.968	0.682	MAIZE	lure	n/a	1	n/a
12.668	0.344	CURRENCY	lure	n/a	1	n/a
13.018	0.713	CRATER	lure	n/a	1	n/a
13.735	0.501	CREWMAN	lure	n/a	1	n/a
14.252	0.541	LOCALITY	lure	n/a	1	n/a
14.802	0.343	APOLOGY	lure	n/a	1	n/a
15.218	0.781	PEN	lure	n/a	1	n/a
16.018	0.502	ANTIBODY	lure	n/a	1	n/a
16.535	1.005	PLUM	fruit	detect	1	662
17.553	0.666	GESTATION	lure	n/a	1	n/a
18.235	0.338	EARTHQUAKE	lure	n/a	1	n/a
18.585	0.437	ALTO	lure	n/a	1	n/a
19.035	0.343	SYNTAX	lure	n/a	1	n/a
19.385	0.725	LUSTRE	lure	n/a	1	n/a
20.118	0.56	En/aICHMENT	lure	n/a	1	n/a
20.685	0.566	BUGABOO	lure	n/a	1	n/a
21.268	0.603	VIEWPOINT	lure	n/a	1	n/a
21.885	0.37	ION	lure	n/a	1	n/a
22.268	0.459	WICKET	lure	n/a	1	n/a
22.735	0.67	ARCHWAY	lure	n/a	1	n/a
23.418	0.324	PRINCIPLE	lure	n/a	1	n/a
23.751	0.568	SHORTCAKE	lure	n/a	1	n/a
24.335	0.526	COCKTAIL	lure	n/a	1	n/a
24.868	0.607	HUMIDITY	lure	n/a	1	n/a
25.485	0.42	VOLCANO	lure	n/a	1	n/a
25.918	0.487	GOOBER	lure	n/a	1	n/a
26.485	0.526	MOOD	lure	n/a	1	n/a
27.018	0.579	WAIST	lure	n/a	1	n/a
27.601	0.471	DOGMA	lure	n/a	1	n/a
28.085	0.356	GYM	lure	n/a	1	n/a
28.451	0.661	FLAPJACK	lure	n/a	1	n/a
29.118	0.613	WHEELBASE	lure	n/a	1	n/a
29.735	0.264	COSTUMER	lure	n/a	1	n/a
30.018	0.502	INFANTRY	lure	n/a	1	n/a
30.538	0.601	PIN	short	n/a	1	n/a
31.151	0.626	OFFENCE	lure	n/a	1	n/a
31.785	0.411	REFILL	lure	n/a	1	n/a
32.201	0.454	HOSIERY	lure	n/a	1	n/a
32.668	0.75	SUBMARINE	lure	n/a	1	n/a
33.435	0.467	BOTANY	lure	n/a	1	n/a
33.918	0.42	OPPONENT	lure	n/a	1	n/a
34.351	0.354	CARETAKER	lure	n/a	1	n/a
34.718	0.478	BYPRODUCT	lure	n/a	1	n/a
35.201	0.54	BARN	lure	n/a	1	n/a
35.751	0.675	OUTFIELD	lure	n/a	1	n/a
36.438	0.523	GIST	lure	n/a	1	n/a
37.035	0.661	FOLK	lure	n/a	1	n/a
37.701	0.479	ANVIL	lure	n/a	1	n/a
38.185	0.318	BRAILLE	lure	n/a	1	n/a
38.518	0.579	HEADLINE	lure	n/a	1	n/a
39.101	0.898	DALE	lure	n/a	1	n/a
40.018	0.501	CASSETTE	lure	n/a	1	n/a
40.535	2.002	ORNAMENT	long	n/a	1	n/a
42.553	0.72	COMMUTE	lure	n/a	1	n/a
43.285	0.447	MUSK	lure	n/a	1	n/a
43.751	0.705	POINTER	lure	n/a	1	n/a
44.468	0.577	STOOL	lure	n/a	1	n/a
45.051	0.547	POTATO	lure	n/a	1	n/a
45.618	0.696	MAINSTAY	lure	n/a	1	n/a
46.318	0.523	ALLEGIANCE	lure	n/a	1	n/a
46.851	0.307	INSET	lure	n/a	1	n/a
47.168	0.476	NEBULA	lure	n/a	1	n/a
47.651	0.349	SENIORITY	lure	n/a	1	n/a
48.018	0.501	GLORY	lure	n/a	1	n/a
48.534	1.002	BLUEBERRY	fruit	detect	1	567
49.551	0.385	SENDER	lure	n/a	1	n/a
50.001	0.459	LATRINE	lure	n/a	1	n/a
50.468	0.531	BERK	lure	n/a	1	n/a
51.018	0.621	SAVANNAH	lure	n/a	1	n/a
51.652	0.667	TORQUE	lure	n/a	1	n/a
52.334	0.344	BEHALF	lure	n/a	1	n/a
52.684	0.572	FRONTAGE	lure	n/a	1	n/a
53.268	0.577	KEYSTONE	lure	n/a	1	n/a
53.851	0.698	NUT	lure	n/a	1	n/a
54.568	0.303	FELICITY	lure	n/a	1	n/a
54.884	0.528	TOUCHSTONE	lure	n/a	1	n/a
55.418	0.498	STINGER	lure	n/a	1	n/a
55.934	0.665	ASSESSMENT	lure	n/a	1	n/a
56.618	0.556	AFTERMATH	lure	n/a	1	n/a
57.184	0.605	DOER	lure	n/a	1	n/a
57.801	0.558	REFUND	lure	n/a	1	n/a
58.372	0.534	BLOWER	lure	n/a	1	n/a
58.918	0.52	RECEIPT	lure	n/a	1	n/a
59.451	0.666	ABSORPTION	lure	n/a	1	n/a
60.134	0.658	BIRCH	lure	n/a	1	n/a
60.801	0.41	ABSORBER	lure	n/a	1	n/a
61.284	0.715	SCOUNDREL	lure	n/a	1	n/a
62.018	0.5	PRETZEL	lure	n/a	1	n/a
62.534	2.002	STADIUM	long	n/a	1	n/a
64.551	0.538	ELONGATION	lure	n/a	1	n/a
65.101	0.403	PERIL	lure	n/a	1	n/a
65.518	0.539	EVILDOER	lure	n/a	1	n/a
66.069	0.655	RECESSION	lure	n/a	1	n/a
66.734	0.713	HAIKU	lure	n/a	1	n/a
67.451	0.697	REGENT	lure	n/a	1	n/a
68.168	0.64	HUNTSMAN	lure	n/a	1	n/a
68.818	0.554	TECHNIQUE	lure	n/a	1	n/a
69.384	0.719	SCAFFOLD	lure	n/a	1	n/a
70.117	0.441	WHISTLE	lure	n/a	1	n/a
70.568	0.577	VIOLIN	lure	n/a	1	n/a
71.151	0.849	SUPREME	lure	n/a	1	n/a
72.017	0.501	DAIQUIRI	lure	n/a	1	n/a
72.534	1.002	PEAR	fruit	detect	1	759
73.551	0.541	LOCKET	lure	n/a	1	n/a
74.101	0.376	TOOL	lure	n/a	1	n/a
74.484	0.703	STUPIDITY	lure	n/a	1	n/a
75.267	0.662	SUPEREGO	lure	n/a	1	n/a
75.934	0.496	HEAVEN	lure	n/a	1	n/a
76.434	0.512	Un/aEST	lure	n/a	1	n/a
76.951	0.582	ANNEXATION	lure	n/a	1	n/a
77.551	0.535	MOBSTER	lure	n/a	1	n/a
78.101	0.547	SCREE	lure	n/a	1	n/a
78.667	0.488	WRISTBAND	lure	n/a	1	n/a
79.167	0.439	ESTIMATION	lure	n/a	1	n/a
79.617	0.714	PINHEAD	lure	n/a	1	n/a
80.351	0.719	THROTTLE	lure	n/a	1	n/a
81.084	0.489	COUCH	lure	n/a	1	n/a
81.584	0.633	NOMINATION	lure	n/a	1	n/a
82.234	0.597	GENTILE	lure	n/a	1	n/a
82.851	0.312	CLIFF	lure	n/a	1	n/a
83.167	0.732	FALSITY	lure	n/a	1	n/a
83.917	0.58	GREYHOUND	lure	n/a	1	n/a
84.501	0.735	ZONE	lure	n/a	1	n/a
85.251	0.748	PERJURY	lure	n/a	1	n/a
86.017	0.503	PONE	lure	n/a	1	n/a
86.534	1.004	GRAPEFRUIT	fruit	detect	1	591
87.617	0.639	DISCLOSURE	lure	n/a	1	n/a
88.267	0.55	VOLATILITY	lure	n/a	1	n/a
88.834	0.426	SOFTENER	lure	n/a	1	n/a
89.267	0.361	STANCE	lure	n/a	1	n/a
89.634	0.39	MAMA	lure	n/a	1	n/a
90.034	0.607	ELECTION	lure	n/a	1	n/a
90.653	0.473	LINGO	lure	n/a	1	n/a
91.134	0.678	BEDSTEAD	lure	n/a	1	n/a
91.817	0.557	PARAGRAPH	lure	n/a	1	n/a
92.384	0.384	FOREFINGER	lure	n/a	1	n/a
92.784	0.461	MENU	lure	n/a	1	n/a
93.251	0.475	DEMEANOR	lure	n/a	1	n/a
93.734	0.591	AFTERSHAVE	lure	n/a	1	n/a
94.337	0.575	PASTRY	lure	n/a	1	n/a
94.917	0.612	GODSEND	lure	n/a	1	n/a
95.534	0.477	PIRATE	lure	n/a	1	n/a
96.017	0.561	FAD	lure	n/a	1	n/a
96.584	0.352	CHATTERBOX	lure	n/a	1	n/a
96.951	0.676	INSTINCT	lure	n/a	1	n/a
97.638	0.535	MEMORY	lure	n/a	1	n/a
98.25	0.565	TRUANCY	lure	n/a	1	n/a
98.834	0.735	SEAFRONT	lure	n/a	1	n/a
99.584	0.408	PULLOVER	lure	n/a	1	n/a
100.017	0.502	CORNFLOUR	lure	n/a	1	n/a
100.534	0.603	LAKE	short	n/a	1	n/a
101.15	0.484	HASTE	lure	n/a	1	n/a
101.65	0.733	PATHOLOGY	lure	n/a	1	n/a
102.4	0.703	DIPLOMACY	lure	n/a	1	n/a
103.117	0.418	STUD	lure	n/a	1	n/a
103.55	0.35	BRICKLAYER	lure	n/a	1	n/a
103.917	0.345	VELOCITY	lure	n/a	1	n/a
104.267	0.54	TENEMENT	lure	n/a	1	n/a
104.817	0.663	STARLING	lure	n/a	1	n/a
105.484	0.686	PIPER	lure	n/a	1	n/a
106.184	0.667	CARNIVAL	lure	n/a	1	n/a
106.867	0.503	SYMBOL	lure	n/a	1	n/a
107.384	0.364	CONSULATE	lure	n/a	1	n/a
107.767	0.51	HOLOGRAPH	lure	n/a	1	n/a
108.284	0.594	RELIEF	lure	n/a	1	n/a
108.884	0.484	PENTAGON	lure	n/a	1	n/a
109.45	0.54	LARD	lure	n/a	1	n/a
110.017	0.501	SPELLER	lure	n/a	1	n/a
110.534	2.001	PUPPET	long	n/a	1	n/a
112.55	0.65	LIPSTICK	lure	n/a	1	n/a
113.217	0.674	GROUPIE	lure	n/a	1	n/a
113.9	0.365	DISQUIET	lure	n/a	1	n/a
114.284	0.737	ROLLER	lure	n/a	1	n/a
115.034	0.648	TAXICAB	lure	n/a	1	n/a
115.7	0.594	DENIM	lure	n/a	1	n/a
116.3	0.387	SONGBOOK	lure	n/a	1	n/a
116.7	0.734	OFFICE	lure	n/a	1	n/a
117.45	0.677	MISCOUNT	lure	n/a	1	n/a
118.134	0.587	MIDWEEK	lure	n/a	1	n/a
118.733	0.51	SCULLERY	lure	n/a	1	n/a
119.25	0.749	ORTHODOXY	lure	n/a	1	n/a
120.017	0.502	BACKACHE	lure	n/a	1	n/a
120.533	1.003	MULBERRY	fruit	detect	1	664
121.55	0.426	FORMALITY	lure	n/a	1	n/a
121.983	0.442	PROVINCE	lure	n/a	1	n/a
122.433	0.387	ESPIONAGE	lure	n/a	1	n/a
122.9	0.746	MINEFIELD	lure	n/a	1	n/a
123.65	0.41	DOCKYARD	lure	n/a	1	n/a
124.067	0.745	REMARRIAGE	lure	n/a	1	n/a
124.817	0.334	BUREAUCRAT	lure	n/a	1	n/a
125.167	0.329	ANTECEDENT	lure	n/a	1	n/a
125.5	0.733	PHENOMENON	lure	n/a	1	n/a
126.25	0.548	SALIVA	lure	n/a	1	n/a
126.817	0.444	MANATEE	lure	n/a	1	n/a
127.267	0.5	EMINENCE	lure	n/a	1	n/a
127.783	0.571	HISTORIAN	lure	n/a	1	n/a
128.367	0.424	HITTER	lure	n/a	1	n/a
128.8	0.494	ASCETIC	lure	n/a	1	n/a
129.3	0.633	DELUGE	lure	n/a	1	n/a
129.95	0.716	BIOGRAPHER	lure	n/a	1	n/a
130.683	0.509	MARLIN	lure	n/a	1	n/a
131.2	0.682	DEPICTION	lure	n/a	1	n/a
131.9	0.566	FREEHOLDER	lure	n/a	1	n/a
132.483	0.703	CAFFEINE	lure	n/a	1	n/a
133.2	0.417	WIZARD	lure	n/a	1	n/a
133.633	0.357	EXPECTANCE	lure	n/a	1	n/a
134.067	0.501	MIDSHIP	lure	n/a	1	n/a
134.583	2.001	CURTAIN	long	n/a	1	n/a
136.6	0.537	BOOKSHOP	lure	n/a	1	n/a
137.15	0.625	PLATTER	lure	n/a	1	n/a
137.783	0.512	MATADOR	lure	n/a	1	n/a
138.3	0.735	PRECEDENCE	lure	n/a	1	n/a
139.05	0.553	MANHOLE	lure	n/a	1	n/a
139.617	0.44	CLAN	lure	n/a	1	n/a
140.067	0.62	PREDICATE	lure	n/a	1	n/a
140.7	0.52	TAILPIECE	lure	n/a	1	n/a
141.233	0.75	QUICHE	lure	n/a	1	n/a
142	1.991	WARDEN	lure	n/a	1	n/a
144.016	0.502	BOUGH	lure	n/a	1	n/a
144.533	2.002	CHALK	long	n/a	1	n/a
146.55	0.426	STRAW	lure	n/a	1	n/a
146.983	0.737	VALENCE	lure	n/a	1	n/a
147.733	0.549	PSYCHE	lure	n/a	1	n/a
148.3	0.69	LIMERICK	lure	n/a	1	n/a
149	0.716	INGREDIENT	lure	n/a	1	n/a
149.733	0.63	PATRIOTISM	lure	n/a	1	n/a
150.433	0.686	MISSION	lure	n/a	1	n/a
151.133	0.413	PROPENSITY	lure	n/a	1	n/a
151.566	0.559	CARAVAN	lure	n/a	1	n/a
152.133	0.539	LANTERN	lure	n/a	1	n/a
152.683	0.453	SKETCHPAD	lure	n/a	1	n/a
153.15	0.84	PROCESSOR	lure	n/a	1	n/a
154.016	0.502	GOTHICISM	lure	n/a	1	n/a
154.533	0.603	TICKET	short	n/a	1	n/a
155.15	0.305	SCEPTICISM	lure	n/a	1	n/a
155.466	0.503	POUCH	lure	n/a	1	n/a
155.983	0.472	SHOPPER	lure	n/a	1	n/a
156.466	0.689	REEF	lure	n/a	1	n/a
157.167	0.386	JURIST	lure	n/a	1	n/a
157.566	0.306	BLOODSTOCK	lure	n/a	1	n/a
157.884	0.537	WALKER	lure	n/a	1	n/a
158.434	0.484	DEPLETION	lure	n/a	1	n/a
158.933	0.677	CRITIC	lure	n/a	1	n/a
159.616	0.642	GEESE	lure	n/a	1	n/a
160.266	0.734	SKETCHBOOK	lure	n/a	1	n/a
161.016	0.58	RACQUET	lure	n/a	1	n/a
161.666	0.326	GEM	lure	n/a	1	n/a
162.016	0.502	ABSTINENCE	lure	n/a	1	n/a
162.533	0.602	BUCKET	short	n/a	1	n/a
163.15	0.409	WIDTH	lure	n/a	1	n/a
163.566	0.633	TIGER	lure	n/a	1	n/a
164.216	0.333	TELEGRAPHY	lure	n/a	1	n/a
164.566	0.668	STINKER	lure	n/a	1	n/a
165.25	0.323	KNOLL	lure	n/a	1	n/a
165.583	0.694	BOXCAR	lure	n/a	1	n/a
166.283	0.549	JAR	lure	n/a	1	n/a
166.849	0.647	ROD	lure	n/a	1	n/a
167.499	0.739	HEADLAND	lure	n/a	1	n/a
168.25	0.422	FORKLIFT	lure	n/a	1	n/a
168.684	0.354	PASTRAMI	lure	n/a	1	n/a
169.049	0.942	RAINSTORM	lure	n/a	1	n/a
170.016	0.502	SUBMISSION	lure	n/a	1	n/a
170.533	2.001	BRAKE	long	n/a	1	n/a
172.549	0.502	JUROR	lure	n/a	1	n/a
173.066	0.363	VILLAGER	lure	n/a	1	n/a
173.433	0.421	UNCONCERN	lure	n/a	1	n/a
173.933	0.392	JAZZ	lure	n/a	1	n/a
174.333	0.405	DISCRETION	lure	n/a	1	n/a
174.749	0.594	PIXIE	lure	n/a	1	n/a
175.349	0.642	RACETRACK	lure	n/a	1	n/a
176.016	0.502	CROCODILE	lure	n/a	1	n/a
176.533	0.602	LEAF	short	n/a	1	n/a
177.149	0.693	CONVERSANT	lure	n/a	1	n/a
177.849	0.417	CRUSHER	lure	n/a	1	n/a
178.283	0.435	WINDBREAK	lure	n/a	1	n/a
178.733	0.703	AIRFORCE	lure	n/a	1	n/a
179.449	0.698	ZOOLOGIST	lure	n/a	1	n/a
180.166	0.646	STEWARD	lure	n/a	1	n/a
180.816	0.593	FIREBRICK	lure	n/a	1	n/a
181.416	0.708	SCAR	lure	n/a	1	n/a
182.133	0.615	WRIST	lure	n/a	1	n/a
182.766	0.364	MONOTONE	lure	n/a	1	n/a
183.149	0.472	VANITY	lure	n/a	1	n/a
183.633	0.467	CLERGYMEN	lure	n/a	1	n/a
184.116	0.415	HOLDER	lure	n/a	1	n/a
184.549	0.722	REFEREE	lure	n/a	1	n/a
185.349	0.642	MULTITUDE	lure	n/a	1	n/a
186.016	0.501	WINGSPREAD	lure	n/a	1	n/a
186.533	0.602	BANNER	short	n/a	1	n/a
187.149	0.603	MODERNISM	lure	n/a	1	n/a
187.766	0.608	DECIMATION	lure	n/a	1	n/a
188.383	0.583	ASSERTION	lure	n/a	1	n/a
188.983	0.377	SWEATSHIRT	lure	n/a	1	n/a
189.366	0.577	DISLOYALTY	lure	n/a	1	n/a
189.949	0.418	CONTIGUITY	lure	n/a	1	n/a
190.383	0.567	PHARMACIST	lure	n/a	1	n/a
190.966	0.324	CARDIGAN	lure	n/a	1	n/a
191.299	0.31	EROSION	lure	n/a	1	n/a
191.616	0.621	FACADE	lure	n/a	1	n/a
192.249	0.52	MORSEL	lure	n/a	1	n/a
192.782	1.21	WIDOWER	lure	n/a	1	n/a
194.016	0.5	REPLAY	lure	n/a	1	n/a
194.532	0.602	COAL	short	n/a	1	n/a
195.149	0.373	EXPORT	lure	n/a	1	n/a
195.532	0.636	HANDLER	lure	n/a	1	n/a
196.182	0.629	PEGBOARD	lure	n/a	1	n/a
196.882	0.499	HAVEN	lure	n/a	1	n/a
197.399	0.675	VERTIGO	lure	n/a	1	n/a
198.082	0.748	SKIT	lure	n/a	1	n/a
198.849	0.674	HUMPBACK	lure	n/a	1	n/a
199.536	0.692	INVENTORY	lure	n/a	1	n/a
200.232	0.434	CELLULOSE	lure	n/a	1	n/a
200.682	0.655	METHANE	lure	n/a	1	n/a
201.349	0.554	MUSKETEER	lure	n/a	1	n/a
201.916	0.61	BALL	lure	n/a	1	n/a
202.532	0.327	DEFENDER	lure	n/a	1	n/a
202.866	1.127	LETTERBOX	lure	n/a	1	n/a
204.016	0.502	OUTFITTER	lure	n/a	1	n/a
204.532	2.001	MAZE	long	n/a	1	n/a
206.549	0.512	TRAVESTY	lure	n/a	1	n/a
207.066	0.309	CHALET	lure	n/a	1	n/a
207.382	0.583	RAMPAGE	lure	n/a	1	n/a
207.982	0.657	EXISTENCE	lure	n/a	1	n/a
208.649	0.603	ADVERSITY	lure	n/a	1	n/a
209.266	0.372	WARDROBE	lure	n/a	1	n/a
209.649	0.5	TERRIER	lure	n/a	1	n/a
210.236	0.521	VANE	lure	n/a	1	n/a
210.766	0.406	TANGERINE	lure	n/a	1	n/a
211.182	0.808	PROTECTION	lure	n/a	1	n/a
212.016	0.501	INTIMACY	lure	n/a	1	n/a
212.532	0.602	SPARK	short	n/a	1	n/a
213.149	0.379	HOTPLATE	lure	n/a	1	n/a
213.532	0.724	SUBSTANCE	lure	n/a	1	n/a
214.266	0.742	MOURNER	lure	n/a	1	n/a
215.016	0.516	PETROL	lure	n/a	1	n/a
215.549	0.493	TEASPOON	lure	n/a	1	n/a
216.053	0.59	PREHISTORY	lure	n/a	1	n/a
216.649	0.352	DEFECT	lure	n/a	1	n/a
217.015	0.617	ORCHARD	lure	n/a	1	n/a
217.649	0.309	BOY	lure	n/a	1	n/a
217.965	0.457	SNOUT	lure	n/a	1	n/a
218.432	0.746	CONFIDANT	lure	n/a	1	n/a
219.182	0.81	HAREM	lure	n/a	1	n/a
220.015	0.501	BOYHOOD	lure	n/a	1	n/a
220.532	2.003	PISTOL	long	n/a	1	n/a
222.549	0.721	AIDE	lure	n/a	1	n/a
223.349	0.517	LADY	lure	n/a	1	n/a
223.882	0.537	HAKE	lure	n/a	1	n/a
224.432	0.398	UNDERBRUSH	lure	n/a	1	n/a
224.849	0.394	COLLOQUIUM	lure	n/a	1	n/a
225.249	0.382	STOREHOUSE	lure	n/a	1	n/a
225.649	0.605	BATTLESHIP	lure	n/a	1	n/a
226.265	0.564	HARDCOVER	lure	n/a	1	n/a
226.849	0.579	THUG	lure	n/a	1	n/a
227.432	0.56	CREWMEMBER	lure	n/a	1	n/a
228.015	0.503	WIG	lure	n/a	1	n/a
228.532	0.602	PYRAMID	short	n/a	1	n/a
229.149	0.749	DIAMETER	lure	n/a	1	n/a
229.915	0.487	BRIDGEHEAD	lure	n/a	1	n/a
230.415	0.322	SHEEPSKIN	lure	n/a	1	n/a
230.749	0.337	TOMB	lure	n/a	1	n/a
231.099	0.74	OVERLORD	lure	n/a	1	n/a
231.849	0.521	COLLUSION	lure	n/a	1	n/a
232.382	0.525	PUFFER	lure	n/a	1	n/a
232.919	0.472	DEADLOCK	lure	n/a	1	n/a
233.399	0.456	NECESSITY	lure	n/a	1	n/a
233.932	0.34	PUZZLEMENT	lure	n/a	1	n/a
234.282	0.604	MUSKRAT	lure	n/a	1	n/a
234.899	0.375	CHAPLAIN	lure	n/a	1	n/a
235.282	0.709	COUNTRYMAN	lure	n/a	1	n/a
236.015	0.503	TURNABOUT	lure	n/a	1	n/a
236.532	2.002	GRAVEL	long	n/a	1	n/a
238.549	0.741	GAZETTE	lure	n/a	1	n/a
239.301	0.721	TOLERATION	lure	n/a	1	n/a
240.032	0.303	LENDER	lure	n/a	1	n/a
240.348	0.51	WARRANTEE	lure	n/a	1	n/a
240.865	0.709	DEFLATION	lure	n/a	1	n/a
241.582	0.717	CHORE	lure	n/a	1	n/a
242.315	0.479	AVIATION	lure	n/a	1	n/a
242.798	0.604	INNUENDO	lure	n/a	1	n/a
243.415	0.577	CUPBOARD	lure	n/a	1	n/a
244.015	0.501	TURNPIKE	lure	n/a	1	n/a
244.532	2.002	GALLON	long	n/a	1	n/a
246.548	0.444	OWNERSHIP	lure	n/a	1	n/a
246.998	0.426	PARANOIA	lure	n/a	1	n/a
247.432	0.459	AUDACITY	lure	n/a	1	n/a
247.965	0.733	PERMANENCE	lure	n/a	1	n/a
248.715	0.522	FIRELIGHT	lure	n/a	1	n/a
249.248	0.627	HIGHWAYMAN	lure	n/a	1	n/a
249.882	0.11	TRUCE	lure	n/a	1	n/a
250.015	0.501	CONSTRAINT	lure	n/a	1	n/a
250.532	1.003	BLUEBERRY	fruit	detect	1	642
251.548	0.503	FOREBODING	lure	n/a	1	n/a
252.065	0.311	DISTILLERY	lure	n/a	1	n/a
252.382	0.639	FOREWORD	lure	n/a	1	n/a
253.032	0.418	CONCLUSION	lure	n/a	1	n/a
253.465	0.514	CORNFLOWER	lure	n/a	1	n/a
253.982	0.66	SUMMIT	lure	n/a	1	n/a
254.648	0.426	REPETITION	lure	n/a	1	n/a
255.082	0.507	RELAPSE	lure	n/a	1	n/a
255.598	0.69	OUTBACK	lure	n/a	1	n/a
256.298	0.501	ALIGNMENT	lure	n/a	1	n/a
256.815	0.419	HOLLY	lure	n/a	1	n/a
257.248	0.713	SURREALISM	lure	n/a	1	n/a
257.965	0.541	CHURCHYARD	lure	n/a	1	n/a
258.515	0.686	GEn/aE	lure	n/a	1	n/a
259.286	0.371	FOOTLIGHT	lure	n/a	1	n/a
259.665	0.716	UNDERSHIRT	lure	n/a	1	n/a
260.398	0.614	ERASER	lure	n/a	1	n/a
261.015	0.389	CLARINET	lure	n/a	1	n/a
261.415	0.453	COMPLEMENT	lure	n/a	1	n/a
261.882	0.673	LOOPHOLE	lure	n/a	1	n/a
262.566	0.414	PATCHWORK	lure	n/a	1	n/a
262.998	0.626	UNLOADER	lure	n/a	1	n/a
263.632	0.548	SALESWOMAN	lure	n/a	1	n/a
264.198	0.528	THISTLE	lure	n/a	1	n/a
264.731	0.354	INDOLENCE	lure	n/a	1	n/a
265.098	0.717	BACKGROUND	lure	n/a	1	n/a
265.831	0.352	DRAMATIST	lure	n/a	1	n/a
266.198	0.528	TUNIC	lure	n/a	1	n/a
266.732	0.468	EGOTISM	lure	n/a	1	n/a
267.215	0.642	MAMMA	lure	n/a	1	n/a
267.865	0.402	SETTLEMENT	lure	n/a	1	n/a
268.281	0.345	THUMBNAIL	lure	n/a	1	n/a
268.631	0.532	PRESSER	lure	n/a	1	n/a
269.181	0.604	FLORA	lure	n/a	1	n/a
269.865	0.614	FREEBIE	lure	n/a	1	n/a
270.481	0.501	ANYTHING	lure	n/a	1	n/a
270.998	0.418	OCEANSIDE	lure	n/a	1	n/a
271.431	0.71	PLAYTHING	lure	n/a	1	n/a
272.148	0.486	ENCLOSURE	lure	n/a	1	n/a
272.648	0.684	PARKHOUSE	lure	n/a	1	n/a
273.348	0.44	MAJESTY	lure	n/a	1	n/a
273.798	0.356	SOMEBODY	lure	n/a	1	n/a
274.165	0.524	HILT	lure	n/a	1	n/a
274.698	0.563	MODIFIER	lure	n/a	1	n/a
275.265	0.73	SATIRE	lure	n/a	1	n/a
276.015	0.73	FANLIGHT	lure	n/a	1	n/a
276.748	0.722	TORPEDO	lure	n/a	1	n/a
277.481	0.692	MYSTICISM	lure	n/a	1	n/a
278.181	0.458	SHAWL	lure	n/a	1	n/a
278.648	0.672	CORNEA	lure	n/a	1	n/a
279.331	0.681	HAYFORK	lure	n/a	1	n/a
280.031	0.499	BLOWPIPE	lure	n/a	1	n/a
280.548	0.577	APPRAISAL	lure	n/a	1	n/a
291.164	0.741	EVERYTHING	lure	n/a	1	n/a
291.981	0.523	SHRIMP	lure	n/a	1	n/a
292.514	0.558	SPACESHIP	lure	n/a	1	n/a
293.081	0.324	MILESTONE	lure	n/a	1	n/a
293.414	0.673	SAGEBRUSH	lure	n/a	1	n/a
294.098	0.693	ANTHILL	lure	n/a	1	n/a
294.798	0.663	PERIOD	lure	n/a	1	n/a
295.464	0.52	SWIMSUIT	lure	n/a	1	n/a
295.998	0.503	AMBIGUITY	lure	n/a	1	n/a
296.514	0.601	BUCKET	short	n/a	1	n/a
297.131	0.461	LAUREL	lure	n/a	1	n/a
297.598	0.733	GULLET	lure	n/a	1	n/a
298.348	0.711	CONDENSER	lure	n/a	1	n/a
299.064	0.676	ELEVATOR	lure	n/a	1	n/a
299.748	0.683	DICTATION	lure	n/a	1	n/a
300.448	0.73	POET	lure	n/a	1	n/a
301.198	0.537	DOWNPOUR	lure	n/a	1	n/a
301.748	0.345	APPETIZER	lure	n/a	1	n/a
302.098	0.687	ISLANDER	lure	n/a	1	n/a
302.798	0.327	GRAPH	lure	n/a	1	n/a
303.131	0.852	INSIGNIA	lure	n/a	1	n/a
304.065	0.501	LEADERSHIP	lure	n/a	1	n/a
304.581	1.004	MULBERRY	fruit	detect	1	856
305.598	0.682	SQUEALER	lure	n/a	1	n/a
306.298	0.495	SPOILER	lure	n/a	1	n/a
306.798	0.639	SPREE	lure	n/a	1	n/a
307.449	0.337	QUICKIE	lure	n/a	1	n/a
307.799	0.304	FASTENER	lure	n/a	1	n/a
308.114	0.487	CARTEL	lure	n/a	1	n/a
308.614	0.557	QUIZMASTER	lure	n/a	1	n/a
309.181	0.426	SUPERVISOR	lure	n/a	1	n/a
309.614	0.712	CHILD	lure	n/a	1	n/a
310.331	0.43	OBSESSION	lure	n/a	1	n/a
310.764	0.469	RIFLEMAN	lure	n/a	1	n/a
311.248	0.615	WAGTAIL	lure	n/a	1	n/a
311.881	0.589	LOFT	lure	n/a	1	n/a
312.481	0.375	EXCELLENCY	lure	n/a	1	n/a
312.864	0.316	MEAL	lure	n/a	1	n/a
313.197	0.676	OBEDIENCE	lure	n/a	1	n/a
313.885	0.688	VOGUE	lure	n/a	1	n/a
314.585	0.709	COMA	lure	n/a	1	n/a
315.364	0.533	DELEGATE	lure	n/a	1	n/a
315.914	0.409	PATIO	lure	n/a	1	n/a
316.331	0.474	CONNECTION	lure	n/a	1	n/a
316.814	0.728	HOMETOWN	lure	n/a	1	n/a
317.547	0.436	POOF	lure	n/a	1	n/a
317.997	0.502	SUPERNOVA	lure	n/a	1	n/a
318.514	2.002	GALLON	long	n/a	1	n/a
320.531	0.452	WEEK	lure	n/a	1	n/a
320.997	0.624	WHOPPER	lure	n/a	1	n/a
321.634	0.339	SOAPSTONE	lure	n/a	1	n/a
321.985	0.586	TRACTOR	lure	n/a	1	n/a
322.583	0.377	RUG	lure	n/a	1	n/a
322.964	0.365	PROTEST	lure	n/a	1	n/a
323.347	0.503	TOAD	lure	n/a	1	n/a
323.864	0.394	NEWSLETTER	lure	n/a	1	n/a
324.264	0.743	WHITETAIL	lure	n/a	1	n/a
325.014	0.479	TINDERBOX	lure	n/a	1	n/a
325.497	0.486	SILICA	lure	n/a	1	n/a
325.997	0.502	SLIPKNOT	lure	n/a	1	n/a
326.514	2.002	ORNAMENT	long	n/a	1	n/a
328.597	0.494	CHANCELLOR	lure	n/a	1	n/a
329.097	0.638	CAROUSEL	lure	n/a	1	n/a
329.747	0.433	PROPERTY	lure	n/a	1	n/a
330.197	0.403	BATTALION	lure	n/a	1	n/a
330.614	0.511	TRIPOD	lure	n/a	1	n/a
331.131	0.522	SHOTGUN	lure	n/a	1	n/a
331.664	0.61	GEOGRAPHER	lure	n/a	1	n/a
332.281	0.54	ARCHBISHOP	lure	n/a	1	n/a
332.831	0.394	KILT	lure	n/a	1	n/a
333.231	0.742	STEPMOTHER	lure	n/a	1	n/a
333.981	2.002	PAINTER	lure	n/a	1	n/a
335.997	0.501	FARMSTEAD	lure	n/a	1	n/a
336.514	0.602	TICKET	short	n/a	1	n/a
337.13	0.583	REWRITE	lure	n/a	1	n/a
337.73	0.353	HORSEBACK	lure	n/a	1	n/a
338.097	0.325	RELIANCE	lure	n/a	1	n/a
338.43	0.624	TURNOUT	lure	n/a	1	n/a
339.066	0.475	SABLE	lure	n/a	1	n/a
339.547	0.407	EXTRACT	lure	n/a	1	n/a
339.964	0.463	PORCUPINE	lure	n/a	1	n/a
340.497	0.428	PETAL	lure	n/a	1	n/a
340.93	0.449	VULTURE	lure	n/a	1	n/a
341.397	0.73	FONT	lure	n/a	1	n/a
342.13	0.498	SCREENPLAY	lure	n/a	1	n/a
342.647	0.4	DELEGATION	lure	n/a	1	n/a
343.064	0.305	AUTUMN	lure	n/a	1	n/a
343.38	0.397	EXCEPTION	lure	n/a	1	n/a
343.78	0.204	CLIENTELE	lure	n/a	1	n/a
343.997	0.502	SNAPBACK	lure	n/a	1	n/a
344.514	2.001	CURTAIN	long	n/a	1	n/a
346.53	0.433	MACK	lure	n/a	1	n/a
346.98	0.57	HUNTER	lure	n/a	1	n/a
347.564	0.705	PRETEXT	lure	n/a	1	n/a
348.28	0.507	CUTAWAY	lure	n/a	1	n/a
348.797	0.305	IMMINENCE	lure	n/a	1	n/a
349.114	0.535	SEACOAST	lure	n/a	1	n/a
349.664	0.366	GRENADE	lure	n/a	1	n/a
350.047	0.6	PRECEDENT	lure	n/a	1	n/a
350.664	0.382	DECISION	lure	n/a	1	n/a
351.064	0.449	MACKEREL	lure	n/a	1	n/a
351.58	0.402	TRINKET	lure	n/a	1	n/a
351.997	0.502	LOOKUP	lure	n/a	1	n/a
352.514	0.601	SPARK	short	n/a	1	n/a
353.13	0.332	CATCHWORD	lure	n/a	1	n/a
353.48	0.476	BEAGLE	lure	n/a	1	n/a
353.964	0.475	PENCE	lure	n/a	1	n/a
354.447	0.304	DIALOGUE	lure	n/a	1	n/a
354.764	0.406	REVIVALISM	lure	n/a	1	n/a
355.18	0.504	WHOOP	lure	n/a	1	n/a
355.697	0.451	CAPABILITY	lure	n/a	1	n/a
356.164	0.694	EXCISE	lure	n/a	1	n/a
356.864	0.737	PURGATORY	lure	n/a	1	n/a
357.614	0.483	BEDSIDE	lure	n/a	1	n/a
358.114	0.599	SOLDIERY	lure	n/a	1	n/a
358.73	0.328	RIVALRY	lure	n/a	1	n/a
359.064	0.446	MORON	lure	n/a	1	n/a
359.514	0.634	BONEHEAD	lure	n/a	1	n/a
360.164	0.677	CATNIP	lure	n/a	1	n/a
360.847	0.375	MINESTRONE	lure	n/a	1	n/a
361.23	0.753	MARCHER	lure	n/a	1	n/a
362.063	0.501	ALGEBRA	lure	n/a	1	n/a
362.58	0.602	LAKE	short	n/a	1	n/a
363.197	0.306	VISIBILITY	lure	n/a	1	n/a
363.513	0.712	ALMANAC	lure	n/a	1	n/a
364.23	0.422	STEPCHILD	lure	n/a	1	n/a
364.664	0.646	CRITTER	lure	n/a	1	n/a
365.313	0.42	AIRPLANE	lure	n/a	1	n/a
365.747	0.237	MONOGRAPH	lure	n/a	1	n/a
365.997	0.501	TRAILER	lure	n/a	1	n/a
366.513	0.601	LEAF	short	n/a	1	n/a
367.13	0.434	HEARTTHROB	lure	n/a	1	n/a
367.58	0.71	SHEET	lure	n/a	1	n/a
368.297	0.37	AMPUTATION	lure	n/a	1	n/a
368.68	0.692	HARDWOOD	lure	n/a	1	n/a
369.385	0.693	COPYCAT	lure	n/a	1	n/a
370.097	0.628	CONSPIRACY	lure	n/a	1	n/a
370.73	0.448	ARMOR	lure	n/a	1	n/a
371.197	0.441	BEANPOLE	lure	n/a	1	n/a
371.647	0.307	CARGO	lure	n/a	1	n/a
371.963	0.404	MEDICATION	lure	n/a	1	n/a
372.447	0.594	NOOSE	lure	n/a	1	n/a
373.047	0.936	DIVULGENCE	lure	n/a	1	n/a
373.997	0.501	CARTON	lure	n/a	1	n/a
374.513	1.004	BERRY	fruit	detect	1	668
375.53	0.662	PEPPERMINT	lure	n/a	1	n/a
376.197	0.731	GRAYBEARD	lure	n/a	1	n/a
376.947	0.434	TRANSFER	lure	n/a	1	n/a
377.397	0.374	DETERGENT	lure	n/a	1	n/a
377.78	0.348	GENEROSITY	lure	n/a	1	n/a
378.147	0.454	TELETYPE	lure	n/a	1	n/a
378.613	0.726	DETENTION	lure	n/a	1	n/a
379.347	0.509	PINKIE	lure	n/a	1	n/a
379.868	0.658	MARINA	lure	n/a	1	n/a
380.53	0.593	HERESY	lure	n/a	1	n/a
381.13	0.37	AGITATION	lure	n/a	1	n/a
381.513	0.583	GAZER	lure	n/a	1	n/a
382.113	0.364	IRRIGATION	lure	n/a	1	n/a
382.497	0.64	BAMBINO	lure	n/a	1	n/a
383.147	0.338	COMET	lure	n/a	1	n/a
383.497	0.637	SMOKEHOUSE	lure	n/a	1	n/a
384.213	0.582	HANDBILL	lure	n/a	1	n/a
384.813	0.447	BOn/aZA	lure	n/a	1	n/a
385.28	0.303	PACIFIST	lure	n/a	1	n/a
385.597	0.357	SUBSCRIBER	lure	n/a	1	n/a
385.963	0.02	SECRECY	lure	n/a	1	n/a
385.996	0.502	BRIGADE	lure	n/a	1	n/a
386.513	2.002	PUPPET	long	n/a	1	n/a
388.53	0.486	ELASTICITY	lure	n/a	1	n/a
389.03	0.417	SCROOGE	lure	n/a	1	n/a
389.463	0.459	DOORKNOB	lure	n/a	1	n/a
389.93	0.405	BARROW	lure	n/a	1	n/a
390.346	0.468	MISTRIAL	lure	n/a	1	n/a
390.83	0.399	CHRONICLE	lure	n/a	1	n/a
391.246	0.441	MAPLE	lure	n/a	1	n/a
391.696	0.338	SOUL	lure	n/a	1	n/a
392.047	0.551	FIREWATER	lure	n/a	1	n/a
392.613	0.319	MAYPOLE	lure	n/a	1	n/a
392.946	0.636	BARNACLE	lure	n/a	1	n/a
393.596	0.387	HURRICANE	lure	n/a	1	n/a
393.996	0.502	TRADEMARK	lure	n/a	1	n/a
394.58	0.603	COAL	short	n/a	1	n/a
395.196	0.667	NEAPOLITAN	lure	n/a	1	n/a
395.88	0.582	COMPOSURE	lure	n/a	1	n/a
396.48	0.679	IMPULSE	lure	n/a	1	n/a
397.163	0.741	GAGE	lure	n/a	1	n/a
397.913	0.484	LEGIBILITY	lure	n/a	1	n/a
398.413	0.547	HAVOC	lure	n/a	1	n/a
398.963	0.41	SNAPPER	lure	n/a	1	n/a
399.384	0.598	PREFERENCE	lure	n/a	1	n/a
399.996	0.503	SAUNA	lure	n/a	1	n/a
400.513	2.001	MAZE	long	n/a	1	n/a
402.53	0.677	TRICYCLE	lure	n/a	1	n/a
403.213	0.487	PROPORTION	lure	n/a	1	n/a
403.713	0.513	UNDERDOG	lure	n/a	1	n/a
404.23	0.468	OXTAIL	lure	n/a	1	n/a
404.713	0.448	HEDGEHOG	lure	n/a	1	n/a
405.18	0.587	CONFECTION	lure	n/a	1	n/a
405.78	0.497	AMUSEMENT	lure	n/a	1	n/a
406.28	0.437	CONFESSION	lure	n/a	1	n/a
406.73	0.393	MELODY	lure	n/a	1	n/a
407.196	0.535	DUCKY	lure	n/a	1	n/a
407.746	0.237	OILSKIN	lure	n/a	1	n/a
407.996	0.502	ALFREDO	lure	n/a	1	n/a
408.513	1.002	PINEAPPLE	fruit	n/a	0	n/a
409.53	0.33	LIGHTNING	lure	n/a	1	n/a
409.863	0.567	SERPENT	lure	n/a	1	n/a
410.446	0.445	COWHAND	lure	n/a	1	n/a
410.896	0.453	JUBILATION	lure	n/a	1	n/a
411.363	0.598	MANICURIST	lure	n/a	1	n/a
411.979	0.361	SOLIDARITY	lure	n/a	1	n/a
412.346	0.605	CONSULTANT	lure	n/a	1	n/a
412.963	0.404	ASSURANCE	lure	n/a	1	n/a
413.379	0.735	ENTIRETY	lure	n/a	1	n/a
414.129	0.479	ALLIGATOR	lure	n/a	1	n/a
414.613	0.312	OCCUPATION	lure	n/a	1	n/a
414.929	0.342	HARLEQUIN	lure	n/a	1	n/a
415.279	0.731	WILLPOWER	lure	n/a	1	n/a
416.029	0.361	DAYBREAK	lure	n/a	1	n/a
416.396	0.386	LAVA	lure	n/a	1	n/a
416.796	0.621	RADIANCE	lure	n/a	1	n/a
417.496	0.407	HUSSY	lure	n/a	1	n/a
417.913	0.467	HALFTONE	lure	n/a	1	n/a
418.396	0.656	OPTICIAN	lure	n/a	1	n/a
419.063	0.461	MAILBOX	lure	n/a	1	n/a
419.529	0.625	PEBBLE	lure	n/a	1	n/a
420.163	0.553	WHIM	lure	n/a	1	n/a
420.729	0.398	INTENTION	lure	n/a	1	n/a
421.146	0.737	FACT	lure	n/a	1	n/a
421.896	0.087	KARMA	lure	n/a	1	n/a
421.996	0.503	BRUNT	lure	n/a	1	n/a
422.513	1.005	CHERRY	fruit	detect	1	949
423.529	0.465	PERIWINKLE	lure	n/a	1	n/a
424.013	0.446	CHEEK	lure	n/a	1	n/a
424.463	0.458	PREMIERE	lure	n/a	1	n/a
424.929	0.48	DISARRAY	lure	n/a	1	n/a
425.413	0.349	BACKLASH	lure	n/a	1	n/a
425.779	0.452	CONDOLENCE	lure	n/a	1	n/a
426.246	0.442	DIPHTHERIA	lure	n/a	1	n/a
426.7	0.535	KANGAROO	lure	n/a	1	n/a
427.246	0.562	DILUTION	lure	n/a	1	n/a
427.879	0.317	ANCHORMAN	lure	n/a	1	n/a
428.213	0.433	DISGRACE	lure	n/a	1	n/a
428.663	0.732	INDICTMENT	lure	n/a	1	n/a
429.413	0.429	SEQUENCE	lure	n/a	1	n/a
429.846	0.69	SPIDER	lure	n/a	1	n/a
430.546	0.646	CHALICE	lure	n/a	1	n/a
431.196	0.414	TIER	lure	n/a	1	n/a
431.629	0.394	INVALIDISM	lure	n/a	1	n/a
432.029	0.723	CLAY	lure	n/a	1	n/a
432.764	0.534	COURTSHIP	lure	n/a	1	n/a
433.313	0.382	CAVERN	lure	n/a	1	n/a
433.713	0.349	OPPOSITION	lure	n/a	1	n/a
434.079	0.339	REVOLUTION	lure	n/a	1	n/a
434.429	0.746	PLANTER	lure	n/a	1	n/a
435.179	0.342	ACROBAT	lure	n/a	1	n/a
435.529	0.455	OLIGARCHY	lure	n/a	1	n/a
435.996	0.501	OBSERVANCE	lure	n/a	1	n/a
436.512	0.601	PIN	short	n/a	1	n/a
437.129	0.383	VISOR	lure	n/a	1	n/a
437.529	0.637	MILLSTONE	lure	n/a	1	n/a
438.246	0.744	PRECESSION	lure	n/a	1	n/a
438.996	0.314	KEEPER	lure	n/a	1	n/a
439.329	0.456	MONOGRAM	lure	n/a	1	n/a
439.796	0.731	REGULATION	lure	n/a	1	n/a
440.546	0.553	PITFALL	lure	n/a	1	n/a
441.112	0.87	FINALIST	lure	n/a	1	n/a
441.996	0.501	HAMBURGER	lure	n/a	1	n/a
442.512	1.003	MELON	fruit	detect	1	757
443.529	0.417	DEFEATISM	lure	n/a	1	n/a
443.962	0.486	TRANSDUCER	lure	n/a	1	n/a
444.462	0.555	PROVIDENCE	lure	n/a	1	n/a
445.029	0.737	TARIFF	lure	n/a	1	n/a
445.779	0.54	THEW	lure	n/a	1	n/a
446.329	0.664	COMMOTION	lure	n/a	1	n/a
446.996	0.723	HABIT	lure	n/a	1	n/a
447.729	0.413	LARYNX	lure	n/a	1	n/a
448.146	0.527	THIEF	lure	n/a	1	n/a
448.679	0.673	PERISCOPE	lure	n/a	1	n/a
449.362	0.334	FOLKLORIST	lure	n/a	1	n/a
449.712	0.751	GORILLA	lure	n/a	1	n/a
450.546	0.437	NIGHTSHIRT	lure	n/a	1	n/a
450.996	0.564	MAILBAG	lure	n/a	1	n/a
451.562	0.701	HOLDOVER	lure	n/a	1	n/a
452.279	0.309	LINESMAN	lure	n/a	1	n/a
452.596	0.7	CYLINDER	lure	n/a	1	n/a
453.312	0.671	EXPANSE	lure	n/a	1	n/a
453.996	0.501	TIEBREAKER	lure	n/a	1	n/a
454.512	2.002	GRAVEL	long	n/a	1	n/a
456.529	0.582	SOOTHSAYER	lure	n/a	1	n/a
457.129	0.714	ISLE	lure	n/a	1	n/a
457.862	0.54	DEAN	lure	n/a	1	n/a
458.412	0.658	EXTRACTION	lure	n/a	1	n/a
459.079	0.431	INSPECTOR	lure	n/a	1	n/a
459.529	0.704	TROMBONE	lure	n/a	1	n/a
460.245	0.408	INCIVILITY	lure	n/a	1	n/a
460.662	0.305	FREEZER	lure	n/a	1	n/a
460.979	0.739	NOISE	lure	n/a	1	n/a
461.729	0.352	VOLUME	lure	n/a	1	n/a
462.095	0.322	SHOWBOAT	lure	n/a	1	n/a
462.429	0.503	LIP	lure	n/a	1	n/a
463.016	0.49	FALLACY	lure	n/a	1	n/a
463.512	0.471	SERVICEMEN	lure	n/a	1	n/a
463.995	0.501	DIAPER	lure	n/a	1	n/a
464.512	0.601	BANNER	short	n/a	1	n/a
465.129	0.329	BUNGALOW	lure	n/a	1	n/a
465.462	0.421	RELEVANCY	lure	n/a	1	n/a
465.896	0.647	RINGLEADER	lure	n/a	1	n/a
466.545	0.672	RECITAL	lure	n/a	1	n/a
467.229	0.424	DEWDROP	lure	n/a	1	n/a
467.665	0.574	SUn/aISE	lure	n/a	1	n/a
468.245	0.725	DAGGER	lure	n/a	1	n/a
468.979	0.347	UPKEEP	lure	n/a	1	n/a
469.345	0.529	IMMORALITY	lure	n/a	1	n/a
469.879	0.495	MONTH	lure	n/a	1	n/a
470.379	0.702	ROOFTOP	lure	n/a	1	n/a
471.095	0.888	DISPARITY	lure	n/a	1	n/a
471.995	0.502	GOOSE	lure	n/a	1	n/a
472.512	2.001	BRAKE	long	n/a	1	n/a
474.529	0.554	FAMILY	lure	n/a	1	n/a
475.095	0.626	HEADGEAR	lure	n/a	1	n/a
475.795	0.44	WOODWIND	lure	n/a	1	n/a
476.245	0.688	SUBSOIL	lure	n/a	1	n/a
476.945	0.606	COLLAGE	lure	n/a	1	n/a
477.563	0.338	DORM	lure	n/a	1	n/a
477.913	0.742	ANTAGONIST	lure	n/a	1	n/a
478.666	0.327	RESOURCE	lure	n/a	1	n/a
479.012	0.372	MERCY	lure	n/a	1	n/a
479.395	0.681	IGNORANCE	lure	n/a	1	n/a
480.095	0.423	ROWER	lure	n/a	1	n/a
480.529	0.589	WEB	lure	n/a	1	n/a
481.129	0.856	SEAPORT	lure	n/a	1	n/a
481.998	0.502	MAINLAND	lure	n/a	1	n/a
482.512	0.601	BRIDGE	short	n/a	1	n/a
483.129	0.347	STYLE	lure	n/a	1	n/a
483.495	0.603	POTPOURRI	lure	n/a	1	n/a
484.112	0.449	HIVE	lure	n/a	1	n/a
484.578	0.353	CRAFTSMAN	lure	n/a	1	n/a
484.945	0.403	STUDENT	lure	n/a	1	n/a
485.362	0.7	SHANK	lure	n/a	1	n/a
486.078	0.667	YOGURT	lure	n/a	1	n/a
486.828	0.586	SATELLITE	lure	n/a	1	n/a
487.428	0.349	CUSTOMER	lure	n/a	1	n/a
487.795	0.51	CATALOG	lure	n/a	1	n/a
488.312	0.307	NATURALISM	lure	n/a	1	n/a
488.628	0.636	GAG	lure	n/a	1	n/a
489.278	0.681	VICINITY	lure	n/a	1	n/a
489.978	0.005	HIDEOUT	lure	n/a	1	n/a
489.995	0.501	POTENCY	lure	n/a	1	n/a
490.512	2.001	CHALK	long	n/a	1	n/a
492.528	0.463	NIGHTMARE	lure	n/a	1	n/a
492.995	0.623	PLEASANTRY	lure	n/a	1	n/a
493.628	0.43	LANDLADY	lure	n/a	1	n/a
494.062	0.4	NEIGHBOR	lure	n/a	1	n/a
494.478	0.387	GRATUITY	lure	n/a	1	n/a
494.878	0.314	EXPIRATION	lure	n/a	1	n/a
495.212	0.608	BALE	lure	n/a	1	n/a
495.831	0.621	AEROSOL	lure	n/a	1	n/a
496.462	0.732	CALF	lure	n/a	1	n/a
497.212	0.733	DEFECTOR	lure	n/a	1	n/a
497.962	0.581	EPILEPSY	lure	n/a	1	n/a
498.628	0.308	POLYGAMY	lure	n/a	1	n/a
498.948	0.676	GRINDSTONE	lure	n/a	1	n/a
499.628	0.354	MICROWAVE	lure	n/a	1	n/a
499.995	0.501	FEMINISM	lure	n/a	1	n/a
500.512	2.002	STADIUM	long	n/a	1	n/a
502.528	0.348	BRONCO	lure	n/a	1	n/a
502.895	0.38	BUGGY	lure	n/a	1	n/a
503.278	0.657	POTTERY	lure	n/a	1	n/a
503.945	0.562	PALMETTO	lure	n/a	1	n/a
504.512	0.401	CANON	lure	n/a	1	n/a
504.928	0.626	NIP	lure	n/a	1	n/a
505.566	0.418	FOUNDATION	lure	n/a	1	n/a
505.997	0.502	MONEYMAKER	lure	n/a	1	n/a
506.512	2.001	PISTOL	long	n/a	1	n/a
508.528	0.474	AMPHIBIAN	lure	n/a	1	n/a
509.011	0.392	KICKOFF	lure	n/a	1	n/a
509.411	0.351	COVE	lure	n/a	1	n/a
509.778	0.332	MOUSTACHE	lure	n/a	1	n/a
510.128	0.538	CANNON	lure	n/a	1	n/a
510.678	0.504	DEPARTURE	lure	n/a	1	n/a
511.261	0.437	FACTION	lure	n/a	1	n/a
511.711	0.403	FILTRATION	lure	n/a	1	n/a
512.128	0.393	HATCHWAY	lure	n/a	1	n/a
512.528	0.343	PHONOGRAPH	lure	n/a	1	n/a
512.878	0.36	HUE	lure	n/a	1	n/a
513.245	0.528	SURVEY	lure	n/a	1	n/a
513.778	0.632	PUNCHER	lure	n/a	1	n/a
514.428	0.407	APPOINTEE	lure	n/a	1	n/a
514.847	0.367	MASON	lure	n/a	1	n/a
515.228	0.747	TEMPO	lure	n/a	1	n/a
515.995	0.502	DECADENCE	lure	n/a	1	n/a
516.511	0.602	PYRAMID	short	n/a	1	n/a
517.128	0.393	POLLUTANT	lure	n/a	1	n/a
517.528	0.693	FIELDSMAN	lure	n/a	1	n/a
518.228	0.541	BANKNOTE	lure	n/a	1	n/a
518.778	0.412	KARATE	lure	n/a	1	n/a
519.195	0.716	FOUNTAIN	lure	n/a	1	n/a
519.928	0.327	OVERSIGHT	lure	n/a	1	n/a
520.261	0.307	FLOTATION	lure	n/a	1	n/a
520.578	0.411	SCRAMBLER	lure	n/a	1	n/a
521.061	0.686	WEIRDO	lure	n/a	1	n/a
521.761	0.214	CROSSBEAM	lure	n/a	1	n/a
521.995	0.501	RESURGENCE	lure	n/a	1	n/a
522.511	1.003	CRANBERRY	fruit	n/a	0	n/a
523.528	0.609	VALUATION	lure	detect	0	13
524.145	0.363	EVANGELIST	lure	n/a	1	n/a
524.511	0.325	HEYDAY	lure	n/a	1	n/a
524.845	0.426	BALSAM	lure	n/a	1	n/a
525.278	0.728	TANNER	lure	n/a	1	n/a
526.011	0.414	VERACITY	lure	n/a	1	n/a
526.445	0.647	BEE	lure	n/a	1	n/a
527.095	0.727	URGENCY	lure	n/a	1	n/a
527.828	0.711	TAVERN	lure	n/a	1	n/a
528.545	0.519	POSTCODE	lure	n/a	1	n/a
529.078	0.584	VITALISM	lure	n/a	1	n/a
529.678	0.477	RIDER	lure	n/a	1	n/a
530.161	0.343	TANGENCY	lure	n/a	1	n/a
530.511	0.674	SAILCLOTH	lure	n/a	1	n/a
531.197	0.69	CRUCIFIX	lure	n/a	1	n/a
531.899	0.737	SAILBOAT	lure	n/a	1	n/a
532.711	0.334	PEAL	lure	n/a	1	n/a
533.061	0.615	PROXIMITY	lure	n/a	1	n/a
533.694	0.603	BRINK	lure	n/a	1	n/a
534.311	0.62	ACTIVATION	lure	n/a	1	n/a
534.944	0.458	FUZZ	lure	n/a	1	n/a
535.415	0.604	SMOOTHIE	lure	n/a	1	n/a
536.031	0.318	DEVELOPER	lure	n/a	1	n/a
536.361	0.526	ENTHUSIAST	lure	n/a	1	n/a
536.894	0.633	SLANDERER	lure	n/a	1	n/a
537.544	0.481	CREATIVITY	lure	n/a	1	n/a
538.044	0.667	FEE	lure	n/a	1	n/a
538.728	0.335	TENDRIL	lure	n/a	1	n/a
539.078	0.526	ROVER	lure	n/a	1	n/a
539.611	0.731	EDITORSHIP	lure	n/a	1	n/a
540.361	0.381	MEN	lure	n/a	1	n/a
540.761	0.397	ZEPPELIN	lure	n/a	1	n/a
541.161	0.583	BAROMETER	lure	n/a	1	n/a
541.761	0.655	OVERTONE	lure	n/a	1	n/a
542.428	0.565	BIDDER	lure	n/a	1	n/a
543.011	0.601	TORTILLA	lure	n/a	1	n/a
543.694	0.343	COBWEB	lure	n/a	1	n/a
544.044	0.566	ICEBOAT	lure	n/a	1	n/a
544.628	0.535	FRAILTY	lure	n/a	1	n/a
545.178	0.57	TREATISE	lure	n/a	1	n/a
545.761	0.66	REPUTATION	lure	n/a	1	n/a
546.428	0.521	PRETENDER	lure	n/a	1	n/a
546.961	0.675	VANTAGE	lure	n/a	1	n/a
547.644	0.693	PREDICTION	lure	n/a	1	n/a
548.344	0.626	OPIUM	lure	n/a	1	n/a
548.978	0.326	HUMORIST	lure	n/a	1	n/a
549.315	0.592	YAM	lure	n/a	1	n/a
549.911	0.598	SHRINE	lure	n/a	1	n/a
550.528	0.556	LAW	lure	n/a	1	n/a
551.094	0.398	ASSESSOR	lure	n/a	1	n/a
551.511	0.365	SUPPRESSOR	lure	n/a	1	n/a
551.894	0.357	NOMINEE	lure	n/a	1	n/a
552.263	0.505	EXPRESSWAY	lure	n/a	1	n/a
552.779	0.626	DISPENSER	lure	n/a	1	n/a
553.411	0.558	CENTRALISM	lure	n/a	1	n/a
553.978	0.334	WISDOM	lure	n/a	1	n/a
554.394	0.468	HUB	lure	n/a	1	n/a
554.878	0.678	LIQUEUR	lure	n/a	1	n/a
555.561	0.429	ATTENDANT	lure	n/a	1	n/a
555.994	0.682	TURNOFF	lure	n/a	1	n/a
556.694	0.644	ACRONYM	lure	n/a	1	n/a
557.344	0.462	ZOMBIE	lure	n/a	1	n/a
557.811	0.627	YELLER	lure	n/a	1	n/a
558.444	0.42	TURBOJET	lure	n/a	1	n/a
558.877	0.702	WOODPECKER	lure	n/a	1	n/a
559.594	0.547	CHAMPAGNE	lure	n/a	1	n/a
560.144	0.459	OAK	lure	n/a	1	n/a
560.611	0.476	TRIBUTARY	lure	n/a	1	n/a
561.094	0.568	RESPIRATOR	lure	n/a	1	n/a
561.677	0.721	NOBLEMAN	lure	n/a	1	n/a
562.411	0.75	CLEMENCY	lure	n/a	1	n/a
563.177	0.636	ORDINATE	lure	n/a	1	n/a
563.827	0.373	RESPITE	lure	n/a	1	n/a
564.211	0.654	RIVER	lure	n/a	1	n/a
564.877	0.745	DICTION	lure	n/a	1	n/a
565.627	0.587	EDUCATOR	lure	n/a	1	n/a
566.294	0.482	ARBOR	lure	n/a	1	n/a
566.794	0.388	SHARKSKIN	lure	n/a	1	n/a
567.194	0.653	PUBLICITY	lure	n/a	1	n/a
567.861	0.735	TASKMASTER	lure	n/a	1	n/a
568.611	0.421	ROADSTER	lure	n/a	1	n/a
569.044	0.436	BONGO	lure	n/a	1	n/a
569.494	0.648	SUNBURN	lure	n/a	1	n/a
570.161	0.517	SERVITUDE	lure	n/a	1	n/a
570.694	0.366	RERUN	lure	n/a	1	n/a
571.077	0.598	BEDFELLOW	lure	n/a	1	n/a
571.694	0.505	HYPNOTIST	lure	n/a	1	n/a