onset	duration	stim	cond	RT	resp	cresp	acc
4.05	0.61348979	LOON	lure	n/a	n/a	n/a	1
4.663	0.68332407	SPANNER	lure	n/a	n/a	n/a	1
5.347	0.649994231	AMPLIFIER	lure	n/a	n/a	n/a	1
5.997	0.549995296	FOOTSTOOL	lure	n/a	n/a	n/a	1
6.547	0.533320527	WAY	lure	n/a	n/a	n/a	1
7.08	0.399999464	HYPNOTIST	lure	n/a	n/a	n/a	1
7.48	0.616657009	POLISH	short	n/a	n/a	n/a	1
8.097	0.616655929	DYNASTY	lure	n/a	n/a	n/a	1
8.713	0.333328702	TROLLEY	lure	n/a	n/a	n/a	1
9.047	0.533329207	CHASER	lure	n/a	n/a	n/a	1
9.58	0.549992652	HAIRNET	lure	n/a	n/a	n/a	1
10.13	0.583363548	MONOLOGIST	lure	n/a	n/a	n/a	1
10.713	0.51662135	RESALE	lure	n/a	n/a	n/a	1
11.23	0.416661369	DRAWBRIDGE	lure	n/a	n/a	n/a	1
11.647	0.466657033	ENTROPY	lure	n/a	n/a	n/a	1
12.113	0.466659694	WHIZ	lure	n/a	n/a	n/a	1
12.58	0.737116733	REFRESHER	lure	n/a	n/a	n/a	1
13.317	0.446203287	OUTBURST	lure	n/a	n/a	n/a	1
13.763	0.583327287	MORALE	lure	n/a	n/a	n/a	1
14.347	0.383327244	COACHMEN	lure	n/a	n/a	n/a	1
14.73	0.499992247	ARK	lure	n/a	n/a	n/a	1
15.23	0.56665997	RACIALISM	lure	n/a	n/a	n/a	1
15.797	1.019838423	STRAWBERRY	fruit	810	2	2	1
16.816	0.480141623	SPECTACLE	lure	n/a	n/a	n/a	1
17.297	0.533326131	TYCOON	lure	n/a	n/a	n/a	1
17.83	0.616654561	HANDMAID	lure	n/a	n/a	n/a	1
18.447	0.5833279	UPTAKE	lure	n/a	n/a	n/a	1
19.03	0.600032964	PLENITUDE	lure	n/a	n/a	n/a	1
19.63	0.599950469	PATRONAGE	lure	n/a	n/a	n/a	1
20.23	0.483329397	ELLIPSE	lure	n/a	n/a	n/a	1
20.713	0.316664333	QUOTA	lure	n/a	n/a	n/a	1
21.03	0.666657837	ASPECT	lure	n/a	n/a	n/a	1
21.696	0.549989727	BUZZARD	lure	n/a	n/a	n/a	1
22.246	0.586820633	CATHEDRAL	lure	n/a	n/a	n/a	1
22.833	0.72982625	BATHROBE	lure	n/a	n/a	n/a	1
23.563	0.416661266	ESCAPEE	lure	n/a	n/a	n/a	1
23.98	1.016653299	APPLE	fruit	562	2	2	1
24.996	0.383328161	JASMINE	lure	n/a	n/a	n/a	1
25.38	0.349997643	SPEARMINT	lure	n/a	n/a	n/a	1
25.73	0.716658651	OVERCOAT	lure	n/a	n/a	n/a	1
26.446	0.71665202	BRUTE	lure	n/a	n/a	n/a	1
27.163	0.499993451	PILLION	lure	n/a	n/a	n/a	1
27.663	0.599994053	READER	lure	n/a	n/a	n/a	1
28.263	0.651919112	UNITY	lure	n/a	n/a	n/a	1
28.915	0.631397108	SUMMARY	lure	n/a	n/a	n/a	1
29.546	0.366661405	DOWRY	lure	n/a	n/a	n/a	1
29.913	0.333325109	PINWHEEL	lure	n/a	n/a	n/a	1
30.246	0.533329842	OILSEED	lure	n/a	n/a	n/a	1
30.78	0.33332927	SIERRA	lure	n/a	n/a	n/a	1
31.113	0.449993973	PLUMBER	lure	n/a	n/a	n/a	1
31.563	0.633325554	DOORNAIL	lure	n/a	n/a	n/a	1
32.196	1.016651146	MANGO	fruit	602	2	2	1
33.213	0.616658	INVALID	lure	n/a	n/a	n/a	1
33.83	0.699990619	TRAIT	lure	n/a	n/a	n/a	1
34.53	0.433325827	PADDOCK	lure	n/a	n/a	n/a	1
34.963	0.733326946	KEEPSAKE	lure	n/a	n/a	n/a	1
35.696	0.699989891	METEOR	lure	n/a	n/a	n/a	1
36.396	0.599988909	ROSEBUD	lure	n/a	n/a	n/a	1
36.996	0.466663383	LIBERATOR	lure	n/a	n/a	n/a	1
37.463	0.666704218	CARVER	lure	n/a	n/a	n/a	1
38.13	0.449944872	TEMPEST	lure	n/a	n/a	n/a	1
38.58	0.566659552	BELT	lure	n/a	n/a	n/a	1
39.146	0.649993932	MAGICIAN	lure	n/a	n/a	n/a	1
39.796	0.383324833	SAKE	lure	n/a	n/a	n/a	1
40.18	0.616662936	MOUNTAIN	short	n/a	n/a	n/a	1
40.796	0.333324702	YAM	lure	n/a	n/a	n/a	1
41.13	0.316705803	FONDUE	lure	n/a	n/a	n/a	1
41.446	0.766612656	MANTEL	lure	n/a	n/a	n/a	1
42.213	0.483327311	SANITY	lure	n/a	n/a	n/a	1
42.696	0.533328062	HARLEQUIN	lure	n/a	n/a	n/a	1
43.23	0.466656615	COASTGUARD	lure	n/a	n/a	n/a	1
43.696	0.34999536	DISUNION	lure	n/a	n/a	n/a	1
44.046	0.399995065	SYNDROME	lure	n/a	n/a	n/a	1
44.446	0.533329739	PATRIMONY	lure	n/a	n/a	n/a	1
44.979	0.585748031	HONEY	lure	n/a	n/a	n/a	1
45.565	0.347570282	HEADHUNTER	lure	n/a	n/a	n/a	1
45.913	0.666657991	BAKERY	lure	n/a	n/a	n/a	1
46.579	0.749991859	BREAKOUT	lure	n/a	n/a	n/a	1
47.329	0.666656881	GHOUL	lure	n/a	n/a	n/a	1
47.996	0.487358808	VORTEX	lure	n/a	n/a	n/a	1
48.483	2.012604353	MAST	long	n/a	n/a	n/a	1
50.496	0.416664283	LARD	lure	n/a	n/a	n/a	1
50.913	0.736169279	ANVIL	lure	n/a	n/a	n/a	1
51.649	0.380481969	INTERPLAY	lure	n/a	n/a	n/a	1
52.029	0.433328537	QUILT	lure	n/a	n/a	n/a	1
52.463	0.516658399	ICICLE	lure	n/a	n/a	n/a	1
52.979	0.366703832	MILE	lure	n/a	n/a	n/a	1
53.346	0.466657629	SERPENT	lure	n/a	n/a	n/a	1
53.813	0.566619149	GLASSWARE	lure	n/a	n/a	n/a	1
54.379	0.783325566	ENVELOPE	lure	n/a	n/a	n/a	1
55.163	0.349994912	DUD	lure	n/a	n/a	n/a	1
55.513	0.366658031	PLEA	lure	n/a	n/a	n/a	1
55.879	0.699991007	DESTINY	lure	n/a	n/a	n/a	1
56.579	0.58336737	EQUATOR	lure	n/a	n/a	n/a	1
57.163	2.016600853	FIDDLE	long	n/a	n/a	n/a	1
59.179	0.416657329	DEFICIENCY	lure	n/a	n/a	n/a	1
59.596	0.649994281	NITROGEN	lure	n/a	n/a	n/a	1
60.246	0.399995259	MENTOR	lure	n/a	n/a	n/a	1
60.646	0.316658025	CADDIE	lure	n/a	n/a	n/a	1
60.963	0.400045653	RENDITION	lure	n/a	n/a	n/a	1
61.363	0.633272268	PULLOVER	lure	n/a	n/a	n/a	1
61.996	0.483333381	REVERSAL	lure	n/a	n/a	n/a	1
62.479	0.549987499	MEDALLION	lure	n/a	n/a	n/a	1
63.029	0.566665649	CASKET	lure	n/a	n/a	n/a	1
63.596	0.599988665	GUILD	lure	n/a	n/a	n/a	1
64.196	0.333330425	TWILL	lure	n/a	n/a	n/a	1
64.529	0.45406307	BUNGALOW	lure	n/a	n/a	n/a	1
64.983	0.662587445	PROCESSION	lure	n/a	n/a	n/a	1
65.646	2.016637056	SUDS	long	n/a	n/a	n/a	1
67.663	0.566657522	JUBILEE	lure	n/a	n/a	n/a	1
68.229	0.716660538	DORM	lure	n/a	n/a	n/a	1
68.946	0.349993469	NONSTARTER	lure	n/a	n/a	n/a	1
69.296	0.733324096	BONANZA	lure	n/a	n/a	n/a	1
70.029	0.399992243	WEAKLING	lure	n/a	n/a	n/a	1
70.429	0.649998527	HAG	lure	n/a	n/a	n/a	1
71.079	0.399994214	SNACK	lure	n/a	n/a	n/a	1
71.479	0.349994423	PUMPKIN	lure	n/a	n/a	n/a	1
71.829	0.766657083	PERMAFROST	lure	n/a	n/a	n/a	1
72.596	0.699983838	PERCENTILE	lure	n/a	n/a	n/a	1
73.296	0.533329335	SHAKER	lure	n/a	n/a	n/a	1
73.829	1.017231724	PEAR	fruit	777	2	2	1
74.846	0.466084648	SURVEYOR	lure	n/a	n/a	n/a	1
75.312	0.549990248	REFERENCE	lure	n/a	n/a	n/a	1
75.862	0.716653316	TORNADO	lure	n/a	n/a	n/a	1
76.579	0.516661047	DEMANDER	lure	n/a	n/a	n/a	1
77.096	0.349996935	OAT	lure	n/a	n/a	n/a	1
77.446	0.749989756	HANDLER	lure	n/a	n/a	n/a	1
78.196	0.649994076	WOODSMAN	lure	n/a	n/a	n/a	1
78.846	0.516654107	BUNKHOUSE	lure	n/a	n/a	n/a	1
79.362	0.466665185	PRAYER	lure	n/a	n/a	n/a	1
79.829	0.466657927	DEFLATION	lure	n/a	n/a	n/a	1
80.296	0.683324769	SCHOOLBOY	lure	n/a	n/a	n/a	1
80.979	0.48601426	BEHAVIOR	lure	n/a	n/a	n/a	1
81.465	0.630634025	SUBJECTION	lure	n/a	n/a	n/a	1
82.096	0.616662526	TIRE	short	n/a	n/a	n/a	1
82.712	0.449994235	COMPOSITOR	lure	n/a	n/a	n/a	1
83.162	0.416660419	BREADLINE	lure	n/a	n/a	n/a	1
83.579	0.766656631	WITCH	lure	n/a	n/a	n/a	1
84.346	0.533323582	MOTHERHOOD	lure	n/a	n/a	n/a	1
84.879	0.383333079	DOMINATION	lure	n/a	n/a	n/a	1
85.262	0.749983694	ANGLER	lure	n/a	n/a	n/a	1
86.012	0.699993873	REPROACH	lure	n/a	n/a	n/a	1
86.712	0.433366345	FAREWELL	lure	n/a	n/a	n/a	1
87.146	0.616617982	WIZARDRY	lure	n/a	n/a	n/a	1
87.762	0.601017832	UPSHOT	lure	n/a	n/a	n/a	1
88.363	0.682301745	ESPRESSO	lure	n/a	n/a	n/a	1
89.046	0.349991323	SCANNER	lure	n/a	n/a	n/a	1
89.396	0.433329004	BANISTER	lure	n/a	n/a	n/a	1
89.829	0.616658757	BATON	short	n/a	n/a	n/a	1
90.446	0.68332421	INTRO	lure	n/a	n/a	n/a	1
91.129	0.416662066	FISHERMAN	lure	n/a	n/a	n/a	1
91.546	0.699987934	CLUBHOUSE	lure	n/a	n/a	n/a	1
92.246	0.549993209	WILLPOWER	lure	n/a	n/a	n/a	1
92.796	0.533327609	COMEDY	lure	n/a	n/a	n/a	1
93.329	0.383325888	NITRATE	lure	n/a	n/a	n/a	1
93.712	0.753773575	WEAPOn/aY	lure	n/a	n/a	n/a	1
94.466	0.329546912	GLADIATOR	lure	n/a	n/a	n/a	1
94.795	0.666659271	REGISTRAR	lure	n/a	n/a	n/a	1
95.462	0.516658306	COURTROOM	lure	n/a	n/a	n/a	1
95.979	0.716661102	CYCLONE	lure	n/a	n/a	n/a	1
96.695	0.699987613	ERA	lure	n/a	n/a	n/a	1
97.395	0.333330474	ASSERTION	lure	n/a	n/a	n/a	1
97.729	0.416655203	HOMEWORK	lure	n/a	n/a	n/a	1
98.145	1.016652455	PEACH	fruit	565	2	2	1
99.162	0.683324066	TREMOR	lure	n/a	n/a	n/a	1
99.845	0.684203775	LIBRARY	lure	n/a	n/a	n/a	1
100.53	0.749110427	FREEWAY	lure	n/a	n/a	n/a	1
101.279	0.416667631	SCAFFOLD	lure	n/a	n/a	n/a	1
101.695	0.716654372	CYLINDER	lure	n/a	n/a	n/a	1
102.412	0.616657643	HOOKY	lure	n/a	n/a	n/a	1
103.029	0.368248159	ADDRESSEE	lure	n/a	n/a	n/a	1
103.397	0.748400452	RAVIOLI	lure	n/a	n/a	n/a	1
104.145	0.416667539	LANDLORD	lure	n/a	n/a	n/a	1
104.562	0.533323078	PHILOSOPHY	lure	n/a	n/a	n/a	1
105.095	0.633324325	SCARCITY	lure	n/a	n/a	n/a	1
105.729	0.349992261	ENIGMA	lure	n/a	n/a	n/a	1
106.079	0.616660312	COLLAR	short	n/a	n/a	n/a	1
106.695	0.699993276	BONGO	lure	n/a	n/a	n/a	1
107.395	0.3166605	BEAN	lure	n/a	n/a	n/a	1
107.712	0.799990735	PROCTOR	lure	n/a	n/a	n/a	1
108.512	0.333329221	FATHERHOOD	lure	n/a	n/a	n/a	1
108.845	0.58332492	GARGOYLE	lure	n/a	n/a	n/a	1
109.429	0.652022641	PETROL	lure	n/a	n/a	n/a	1
110.081	0.331299749	PAYCHECK	lure	n/a	n/a	n/a	1
110.412	0.333323421	PITFALL	lure	n/a	n/a	n/a	1
110.745	0.649991015	PRESSER	lure	n/a	n/a	n/a	1
111.395	0.433326947	FLINTSTONE	lure	n/a	n/a	n/a	1
111.829	0.733326699	STARGAZER	lure	n/a	n/a	n/a	1
112.562	0.61665733	OCCUPANCY	lure	n/a	n/a	n/a	1
113.179	0.583327676	ENTHUSIAST	lure	n/a	n/a	n/a	1
113.762	0.399989126	ATTITUDE	lure	n/a	n/a	n/a	1
114.162	2.016645928	LUMBER	long	n/a	n/a	n/a	1
116.179	0.67034933	HANDYMEN	lure	n/a	n/a	n/a	1
116.849	0.61296781	PURPOSE	lure	n/a	n/a	n/a	1
117.462	0.533325291	CORONER	lure	n/a	n/a	n/a	1
117.995	0.666655629	LATEX	lure	n/a	n/a	n/a	1
118.662	0.533323916	GUARDHOUSE	lure	n/a	n/a	n/a	1
119.195	0.750035459	ELEPHANT	lure	n/a	n/a	n/a	1
119.945	0.533280062	BEEFCAKE	lure	n/a	n/a	n/a	1
120.478	0.366711787	LONGSHOT	lure	n/a	n/a	n/a	1
120.845	0.549945961	TERRIER	lure	n/a	n/a	n/a	1
121.395	0.483326195	BORDERLAND	lure	n/a	n/a	n/a	1
121.878	0.616655401	PUFFER	lure	n/a	n/a	n/a	1
122.495	2.01664243	DISTRICT	long	n/a	n/a	n/a	1
124.512	0.516659891	LUNG	lure	n/a	n/a	n/a	1
125.028	0.649987226	COMPLIMENT	lure	n/a	n/a	n/a	1
125.678	0.383329885	PLACEMENT	lure	n/a	n/a	n/a	1
126.062	0.499994361	APPROVAL	lure	n/a	n/a	n/a	1
126.562	0.566659481	FLEA	lure	n/a	n/a	n/a	1
127.128	0.483557949	ORGAN	lure	n/a	n/a	n/a	1
127.612	0.349765185	RUSTLER	lure	n/a	n/a	n/a	1
127.962	0.583320435	SUn/aISE	lure	n/a	n/a	n/a	1
128.545	0.433332133	XYLOPHONE	lure	n/a	n/a	n/a	1
128.978	0.699988572	COMPULSION	lure	n/a	n/a	n/a	1
129.678	0.433326124	VILLAIN	lure	n/a	n/a	n/a	1
130.112	0.383332032	DETECTION	lure	n/a	n/a	n/a	1
130.495	0.56665462	PROPORTION	lure	n/a	n/a	n/a	1
131.062	1.016659818	CANTELOUPE	fruit	n/a	n/a	2	0
132.078	0.400031086	CELIBACY	lure	136	2	n/a	0
132.478	0.36662155	COLOGNE	lure	n/a	n/a	n/a	1
132.845	0.316660436	REBOUND	lure	n/a	n/a	n/a	1
133.162	0.533328754	EXPEDIENCY	lure	n/a	n/a	n/a	1
133.695	0.333323698	INSANITY	lure	n/a	n/a	n/a	1
134.028	0.766660771	COLLECTOR	lure	n/a	n/a	n/a	1
134.795	0.649989355	AGITATOR	lure	n/a	n/a	n/a	1
135.445	0.549992721	GENERALITY	lure	n/a	n/a	n/a	1
135.995	0.333328517	REVOCATION	lure	n/a	n/a	n/a	1
136.328	0.416664149	BAROMETER	lure	n/a	n/a	n/a	1
136.745	0.616660951	GANDER	lure	n/a	n/a	n/a	1
137.362	0.46665716	CYNIC	lure	n/a	n/a	n/a	1
137.828	0.683327197	LEGALITY	lure	n/a	n/a	n/a	1
138.512	0.683360525	URETHRA	lure	n/a	n/a	n/a	1
139.195	0.699950373	COMA	lure	n/a	n/a	n/a	1
139.895	0.6166603	CHALK	short	n/a	n/a	n/a	1
140.512	0.449989163	SUBSIDENCE	lure	n/a	n/a	n/a	1
140.962	0.66668809	VISE	lure	n/a	n/a	n/a	1
141.628	0.699959992	WELFARE	lure	n/a	n/a	n/a	1
142.328	0.416667745	COUPLER	lure	n/a	n/a	n/a	1
142.745	0.683320278	TIBIA	lure	n/a	n/a	n/a	1
143.428	0.549993278	MINUET	lure	n/a	n/a	n/a	1
143.978	0.583328002	TEAMWORK	lure	n/a	n/a	n/a	1
144.561	0.366655755	PRELUDE	lure	n/a	n/a	n/a	1
144.928	0.483325947	WHISKY	lure	n/a	n/a	n/a	1
145.411	0.349998856	JOINER	lure	n/a	n/a	n/a	1
145.761	0.349996771	BUCKWHEAT	lure	n/a	n/a	n/a	1
146.111	0.566659302	SPOTTER	lure	n/a	n/a	n/a	1
146.678	0.733319215	REBEL	lure	n/a	n/a	n/a	1
147.411	0.499991391	ABBOT	lure	n/a	n/a	n/a	1
147.911	2.016647256	PLANET	long	n/a	n/a	n/a	1
149.928	0.716655176	PRESIDENCY	lure	n/a	n/a	n/a	1
150.645	0.583324124	CAROL	lure	n/a	n/a	n/a	1
151.228	0.566657077	DANCER	lure	n/a	n/a	n/a	1
151.795	0.683324765	POD	lure	n/a	n/a	n/a	1
152.478	0.399997227	MATH	lure	n/a	n/a	n/a	1
152.878	0.3833261	PEW	lure	n/a	n/a	n/a	1
153.261	0.433326244	MATRIARCH	lure	n/a	n/a	n/a	1
153.695	0.683324023	DRAGONFLY	lure	n/a	n/a	n/a	1
154.378	0.39999844	MINEFIELD	lure	n/a	n/a	n/a	1
154.778	0.733325427	LASSIE	lure	n/a	n/a	n/a	1
155.511	0.583323721	LANDSLIDE	lure	n/a	n/a	n/a	1
156.095	0.616658805	BASKET	short	n/a	n/a	n/a	1
156.711	0.483321235	SPINDLE	lure	n/a	n/a	n/a	1
157.195	0.399994437	EMBROIDERY	lure	n/a	n/a	n/a	1
157.595	0.433327529	GULF	lure	n/a	n/a	n/a	1
158.028	0.733330598	LUNCHROOM	lure	n/a	n/a	n/a	1
158.761	0.43332559	DISSECTION	lure	n/a	n/a	n/a	1
159.195	0.349993793	JAGUAR	lure	n/a	n/a	n/a	1
159.545	0.416657964	CRAFTSMAN	lure	n/a	n/a	n/a	1
159.961	0.599997098	PLAYROOM	lure	n/a	n/a	n/a	1
160.561	0.499990573	MOTIVATION	lure	n/a	n/a	n/a	1
161.061	0.416657738	BACKBEND	lure	n/a	n/a	n/a	1
161.478	0.59999368	BAZOOKA	lure	n/a	n/a	n/a	1
162.078	0.616657926	CONFUSION	lure	n/a	n/a	n/a	1
162.695	0.416660848	THEORIST	lure	n/a	n/a	n/a	1
163.111	0.566657987	NYLON	lure	n/a	n/a	n/a	1
163.678	0.399994602	LIGHTFOOT	lure	n/a	n/a	n/a	1
164.078	2.016642828	HILL	long	n/a	n/a	n/a	1
166.095	0.466682254	AUTOLOADER	lure	n/a	n/a	n/a	1
166.561	0.316643312	TURNOVER	lure	n/a	n/a	n/a	1
166.878	0.499993727	LIEU	lure	n/a	n/a	n/a	1
167.378	0.699984009	JAB	lure	n/a	n/a	n/a	1
168.078	0.666656684	SETTER	lure	n/a	n/a	n/a	1
168.744	0.51666562	JOY	lure	n/a	n/a	n/a	1
169.261	0.716653569	GODMOTHER	lure	n/a	n/a	n/a	1
169.978	0.63332717	TONGUE	lure	n/a	n/a	n/a	1
170.611	0.566658992	PREMISE	lure	n/a	n/a	n/a	1
171.178	0.499989324	REINDEER	lure	n/a	n/a	n/a	1
171.678	0.433331108	AUTHORITY	lure	n/a	n/a	n/a	1
172.111	0.616658308	ROPE	short	n/a	n/a	n/a	1
172.728	0.433328531	MOTHER	lure	n/a	n/a	n/a	1
173.161	0.449990097	TRIPOD	lure	n/a	n/a	n/a	1
173.611	0.749991756	STARLING	lure	n/a	n/a	n/a	1
174.361	0.399995896	LIGAMENT	lure	n/a	n/a	n/a	1
174.761	0.583362973	REACTOR	lure	n/a	n/a	n/a	1
175.344	0.699953491	ZOO	lure	n/a	n/a	n/a	1
176.044	0.766657149	DEBILITATE	lure	n/a	n/a	n/a	1
176.811	0.433326478	STARTER	lure	n/a	n/a	n/a	1
177.244	0.649988743	INACTION	lure	n/a	n/a	n/a	1
177.894	0.599990214	EXCELLENCE	lure	n/a	n/a	n/a	1
178.494	0.666661594	SITTER	lure	n/a	n/a	n/a	1
179.161	0.683321587	LAYMEN	lure	n/a	n/a	n/a	1
179.844	0.483334007	WEALTH	lure	n/a	n/a	n/a	1
180.328	2.016633973	CURTAIN	long	n/a	n/a	n/a	1
182.344	0.516660172	WISP	lure	n/a	n/a	n/a	1
182.861	0.383326315	BALLAD	lure	n/a	n/a	n/a	1
183.244	0.349994956	AMPHIBIAN	lure	n/a	n/a	n/a	1
183.594	0.46666317	GURU	lure	n/a	n/a	n/a	1
184.061	0.533327667	TENSION	lure	n/a	n/a	n/a	1
184.594	0.34999098	BACKYARD	lure	n/a	n/a	n/a	1
184.944	0.7166597	BENEFACTOR	lure	n/a	n/a	n/a	1
185.661	0.383329909	SCHEMA	lure	n/a	n/a	n/a	1
186.044	0.633318933	OUTHOUSE	lure	n/a	n/a	n/a	1
186.678	0.666661431	RENOVATION	lure	n/a	n/a	n/a	1
187.344	0.499993049	EXHIBITION	lure	n/a	n/a	n/a	1
187.844	0.483327287	FOOTBALL	lure	n/a	n/a	n/a	1
188.328	0.604210661	SATURATION	lure	n/a	n/a	n/a	1
188.932	2.01241613	MAGNET	long	n/a	n/a	n/a	1
190.944	0.733324835	QUICKSTEP	lure	n/a	n/a	n/a	1
191.678	0.666661745	VERTEBRAE	lure	n/a	n/a	n/a	1
192.344	0.733322166	WHALEBONE	lure	n/a	n/a	n/a	1
193.077	0.599989786	BURGUNDY	lure	n/a	n/a	n/a	1
193.677	0.616657497	BOTANY	lure	n/a	n/a	n/a	1
194.294	0.699993479	MAMBA	lure	n/a	n/a	n/a	1
194.994	0.683325986	CLIENT	lure	n/a	n/a	n/a	1
195.677	0.416655781	SHRINE	lure	n/a	n/a	n/a	1
196.094	0.566658407	GOLDMINE	lure	n/a	n/a	n/a	1
196.661	0.633325769	TORQUE	lure	n/a	n/a	n/a	1
197.294	0.616660535	IODINE	short	n/a	n/a	n/a	1
197.911	0.71665905	OINTMENT	lure	n/a	n/a	n/a	1
198.627	0.699991599	ROSEWOOD	lure	n/a	n/a	n/a	1
199.327	0.649990491	ATTACHMENT	lure	n/a	n/a	n/a	1
199.977	0.633321872	ABDUCTION	lure	n/a	n/a	n/a	1
200.611	0.599992251	SCUBA	lure	n/a	n/a	n/a	1
201.211	0.666661428	IRRITANT	lure	n/a	n/a	n/a	1
201.877	0.616656031	MICROWAVE	lure	n/a	n/a	n/a	1
202.494	0.333329188	BULLOCK	lure	n/a	n/a	n/a	1
202.827	0.716657039	REMOVAL	lure	n/a	n/a	n/a	1
203.544	0.583322639	LUSTRE	lure	n/a	n/a	n/a	1
204.127	0.749993805	RULER	lure	n/a	n/a	n/a	1
204.877	0.466658924	FANTASY	lure	n/a	n/a	n/a	1
205.344	0.616659204	DOME	short	n/a	n/a	n/a	1
205.961	0.633327119	VENTRICLE	lure	n/a	n/a	n/a	1
206.594	0.58332116	SERENITY	lure	n/a	n/a	n/a	1
207.177	0.683323792	PEBBLE	lure	n/a	n/a	n/a	1
207.861	0.566696574	OUTPOURING	lure	n/a	n/a	n/a	1
208.427	0.316623844	WARE	lure	n/a	n/a	n/a	1
208.744	0.449996812	OUTCAST	lure	n/a	n/a	n/a	1
209.194	0.433327045	SEEKER	lure	n/a	n/a	n/a	1
209.627	0.616656121	CHEESECAKE	lure	n/a	n/a	n/a	1
210.244	0.73332352	DEBT	lure	n/a	n/a	n/a	1
210.977	0.633322858	VEAL	lure	n/a	n/a	n/a	1
211.611	0.699995423	LEUKEMIA	lure	n/a	n/a	n/a	1
212.311	0.633321749	EASEMENT	lure	n/a	n/a	n/a	1
212.944	0.649991106	CONTAINER	lure	n/a	n/a	n/a	1
213.594	0.483330243	AIRFRAME	lure	n/a	n/a	n/a	1
214.077	2.016637908	DIAL	long	n/a	n/a	n/a	1
216.094	0.333329956	CROISSANT	lure	n/a	n/a	n/a	1
216.427	0.566659323	DONATION	lure	n/a	n/a	n/a	1
216.994	0.649988733	DESPOTISM	lure	n/a	n/a	n/a	1
217.644	0.66665925	PARKHOUSE	lure	n/a	n/a	n/a	1
218.31	0.4499937	EYELID	lure	n/a	n/a	n/a	1
218.76	0.433329964	PARABLE	lure	n/a	n/a	n/a	1
219.194	0.433328013	SWATCH	lure	n/a	n/a	n/a	1
219.627	0.318803287	REPTILE	lure	n/a	n/a	n/a	1
219.946	0.731176533	LIVER	lure	n/a	n/a	n/a	1
220.677	0.333329056	CINNAMON	lure	n/a	n/a	n/a	1
221.01	0.4499957	MOTH	lure	n/a	n/a	n/a	1
221.46	0.366661369	ORPHANAGE	lure	n/a	n/a	n/a	1
221.827	0.349997318	EMPLOYEE	lure	n/a	n/a	n/a	1
222.177	0.466656355	SPOUSE	lure	n/a	n/a	n/a	1
222.644	0.650001557	MAIDENHOOD	lure	n/a	n/a	n/a	1
223.294	0.699982588	MILLIMETER	lure	n/a	n/a	n/a	1
223.994	0.466660323	SWEEPER	lure	n/a	n/a	n/a	1
224.46	0.699993575	MOB	lure	n/a	n/a	n/a	1
225.16	0.633320423	LATCH	lure	n/a	n/a	n/a	1
225.794	0.416664629	HALL	lure	n/a	n/a	n/a	1
226.21	0.566655996	NOBODY	lure	n/a	n/a	n/a	1
226.777	n/a	FINDER	lure	n/a	n/a	n/a	1
238.01	0.533322967	COPIER	lure	n/a	n/a	n/a	1
238.544	0.316662108	ROADBED	lure	n/a	n/a	n/a	1
238.86	0.366667382	ROADSTER	lure	n/a	n/a	n/a	1
239.227	0.599987042	ADVOCACY	lure	n/a	n/a	n/a	1
239.827	0.316666145	SALAD	lure	n/a	n/a	n/a	1
240.144	0.383325132	REPRIEVE	lure	n/a	n/a	n/a	1
240.527	0.533328699	OVERDRAFT	lure	n/a	n/a	n/a	1
241.06	0.649988566	PIPETTE	lure	n/a	n/a	n/a	1
241.71	0.33333267	SULFIDE	lure	n/a	n/a	n/a	1
242.043	2.049972894	DIAL	long	n/a	n/a	n/a	1
244.093	0.549986623	VENTURER	lure	n/a	n/a	n/a	1
244.643	0.50000004	TITLE	lure	n/a	n/a	n/a	1
245.143	0.599988933	COUNTY	lure	n/a	n/a	n/a	1
245.743	0.53332425	GIRLFRIEND	lure	n/a	n/a	n/a	1
246.277	0.383328784	PATTY	lure	n/a	n/a	n/a	1
246.66	0.33332984	LAWMAN	lure	n/a	n/a	n/a	1
246.993	0.466659172	STUPIDITY	lure	n/a	n/a	n/a	1
247.46	0.602200682	HEROISM	lure	n/a	n/a	n/a	1
248.062	0.51445252	POTATO	lure	n/a	n/a	n/a	1
248.577	0.533323413	CHIC	lure	78	2	n/a	0
249.11	0.61666041	REPRESSION	lure	n/a	n/a	n/a	1
249.727	0.466662378	FOOTWEAR	lure	n/a	n/a	n/a	1
250.193	0.616657216	MOUNTAIN	short	n/a	n/a	n/a	1
250.81	0.416658836	SWEATSHIRT	lure	n/a	n/a	n/a	1
251.227	0.499991943	DIFFICULTY	lure	n/a	n/a	n/a	1
251.727	0.466666168	PASSPORT	lure	n/a	n/a	n/a	1
252.193	0.41665576	CUTTER	lure	n/a	n/a	n/a	1
252.61	0.399993885	LIBRARIAN	lure	n/a	n/a	n/a	1
253.01	0.68332452	SOFTBALL	lure	n/a	n/a	n/a	1
253.693	0.533329581	FINISHER	lure	n/a	n/a	n/a	1
254.227	0.433324195	CORDIALITY	lure	n/a	n/a	n/a	1
254.66	0.64999079	CONTEXT	lure	n/a	n/a	n/a	1
255.31	0.399997212	TRIDENT	lure	n/a	n/a	n/a	1
255.71	0.399991572	CONVENT	lure	n/a	n/a	n/a	1
256.11	0.433330634	DAIRY	lure	n/a	n/a	n/a	1
256.543	0.668996893	CHILDREN	lure	n/a	n/a	n/a	1
257.212	0.56431972	CURLER	lure	n/a	n/a	n/a	1
257.777	0.633322433	BUTLER	lure	n/a	n/a	n/a	1
258.41	0.616657928	IODINE	short	n/a	n/a	n/a	1
259.027	0.599995059	DICE	lure	n/a	n/a	n/a	1
259.627	0.616659067	REPENTANCE	lure	n/a	n/a	n/a	1
260.243	0.433326584	DUDE	lure	n/a	n/a	n/a	1
260.677	0.349994829	DECOY	lure	n/a	n/a	n/a	1
261.027	0.533325838	WOOD	lure	n/a	n/a	n/a	1
261.56	0.733324742	GIRLHOOD	lure	n/a	n/a	n/a	1
262.293	0.51665961	CONSPIRACY	lure	n/a	n/a	n/a	1
262.81	0.683324995	DRUMHEAD	lure	n/a	n/a	n/a	1
263.493	0.699989187	SANDER	lure	n/a	n/a	n/a	1
264.193	0.700027267	MOLESKIN	lure	n/a	n/a	n/a	1
264.893	0.466624163	GIBBERISH	lure	n/a	n/a	n/a	1
265.36	0.666654715	BEDROCK	lure	n/a	n/a	n/a	1
266.027	0.483329328	SNOWSHOE	lure	n/a	n/a	n/a	1
266.51	0.683323865	TUNER	lure	n/a	n/a	n/a	1
267.193	0.61665629	BASKET	short	n/a	n/a	n/a	1
267.81	0.399998417	VICINITY	lure	n/a	n/a	n/a	1
268.21	0.649987782	ENCHANTER	lure	n/a	n/a	n/a	1
268.86	0.483329811	EXAMPLE	lure	n/a	n/a	n/a	1
269.343	0.349991312	FULLBACK	lure	n/a	n/a	n/a	1
269.693	0.499995337	DIRT	lure	n/a	n/a	n/a	1
270.193	0.583326722	HOSTILITY	lure	n/a	n/a	n/a	1
270.776	0.733321179	CARD	lure	n/a	n/a	n/a	1
271.51	0.683367676	WHOOPING	lure	n/a	n/a	n/a	1
272.193	0.483863428	DISK	lure	n/a	n/a	n/a	1
272.677	0.432749306	ARCHITECT	lure	n/a	n/a	n/a	1
273.11	0.349993087	RIFF	lure	n/a	n/a	n/a	1
273.46	0.649991439	ESTATE	lure	n/a	n/a	n/a	1
274.11	0.633325099	SNATCHER	lure	n/a	n/a	n/a	1
274.743	0.533328494	INFUSION	lure	n/a	n/a	n/a	1
275.276	1.017965219	MANGO	fruit	738	2	2	1
276.294	0.398678764	THRUSH	lure	n/a	n/a	n/a	1
276.693	0.616658906	CROWBAR	lure	n/a	n/a	n/a	1
277.31	0.433330672	MILLSTONE	lure	n/a	n/a	n/a	1
277.743	0.699987724	OVERKILL	lure	n/a	n/a	n/a	1
278.443	0.74998954	STRONGHOLD	lure	n/a	n/a	n/a	1
279.193	0.433330969	TABLET	lure	n/a	n/a	n/a	1
279.626	0.733322981	HASTE	lure	n/a	n/a	n/a	1
280.36	0.58332303	VIBRATION	lure	n/a	n/a	n/a	1
280.943	0.766658132	CASTE	lure	n/a	n/a	n/a	1
281.71	0.516658284	CEREAL	lure	n/a	n/a	n/a	1
282.226	0.649992888	CANISTER	lure	n/a	n/a	n/a	1
282.876	0.433328872	BROTH	lure	n/a	n/a	n/a	1
283.31	1.016649654	PEAR	fruit	625	2	2	1
284.326	0.516657992	CORONA	lure	n/a	n/a	n/a	1
284.843	0.44999855	GOLDSMITH	lure	n/a	n/a	n/a	1
285.293	0.599987365	TROUT	lure	n/a	n/a	n/a	1
285.893	0.633328835	MATURITY	lure	n/a	n/a	n/a	1
286.526	0.433323485	GODCHILD	lure	n/a	n/a	n/a	1
286.96	0.466660482	VAPIDITY	lure	n/a	n/a	n/a	1
287.426	0.41666199	SOAPBOX	lure	n/a	n/a	n/a	1
287.843	0.349998384	BLOWUP	lure	n/a	n/a	n/a	1
288.193	0.733320619	NEWSLETTER	lure	n/a	n/a	n/a	1
288.926	0.549993006	BIOLOGIST	lure	n/a	n/a	n/a	1
289.476	0.399996836	CHEVRON	lure	n/a	n/a	n/a	1
289.876	0.383324262	VESICLE	lure	n/a	n/a	n/a	1
290.26	0.46666056	SEAFOOD	lure	n/a	n/a	n/a	1
290.726	0.31666364	JAVELIN	lure	n/a	n/a	n/a	1
291.043	2.016639816	LUMBER	long	n/a	n/a	n/a	1
293.059	0.416663209	HIDEAWAY	lure	n/a	n/a	n/a	1
293.476	0.483323599	CHATTERBOX	lure	n/a	n/a	n/a	1
293.959	0.666660743	CRADLE	lure	n/a	n/a	n/a	1
294.626	0.633327763	METAPHYSIC	lure	n/a	n/a	n/a	1
295.259	0.333328063	RESISTOR	lure	n/a	n/a	n/a	1
295.593	0.616655077	ADMIRALTY	lure	n/a	n/a	n/a	1
296.209	0.566661059	FIDELITY	lure	n/a	n/a	n/a	1
296.776	0.466655585	TEA	lure	n/a	n/a	n/a	1
297.243	0.333329171	COWHAND	lure	n/a	n/a	n/a	1
297.576	0.649991657	FLOWERBED	lure	n/a	n/a	n/a	1
298.226	0.316661973	RELIGION	lure	n/a	n/a	n/a	1
298.543	0.566658951	MADHOUSE	lure	n/a	n/a	n/a	1
299.109	1.049989208	GRAPE	fruit	729	2	2	1
300.159	0.433325062	PEST	lure	n/a	n/a	n/a	1
300.593	0.649990251	HONEYDEW	lure	n/a	n/a	n/a	1
301.243	0.483327771	POORHOUSE	lure	n/a	n/a	n/a	1
301.726	0.350000898	EQUITY	lure	n/a	n/a	n/a	1
302.076	0.716650724	ENGINE	lure	n/a	n/a	n/a	1
302.793	0.749994654	PLAYBILL	lure	n/a	n/a	n/a	1
303.543	0.433322878	BUNNY	lure	n/a	n/a	n/a	1
303.976	0.400000437	METHOD	lure	n/a	n/a	n/a	1
304.376	0.633320369	LYRICISM	lure	n/a	n/a	n/a	1
305.009	0.500055286	SHILLING	lure	n/a	n/a	n/a	1
305.509	0.649985606	CUTICLE	lure	n/a	n/a	n/a	1
306.159	0.701216647	HOTBED	lure	n/a	n/a	n/a	1
306.861	0.732038884	ANARCHISM	lure	n/a	n/a	n/a	1
307.593	2.016645199	FIDDLE	long	n/a	n/a	n/a	1
309.609	0.333380173	LAWN	lure	n/a	n/a	n/a	1
309.943	0.349995953	PROSPECT	lure	n/a	n/a	n/a	1
310.293	0.666600075	HARDWARE	lure	n/a	n/a	n/a	1
310.959	0.449996315	VACANCY	lure	n/a	n/a	n/a	1
311.409	0.649993083	FUZZ	lure	n/a	n/a	n/a	1
312.059	0.666658714	FUNERAL	lure	n/a	n/a	n/a	1
312.726	0.504144791	PURSUIT	lure	n/a	n/a	n/a	1
313.23	0.579172829	EXERTION	lure	n/a	n/a	n/a	1
313.809	0.583322747	EDITOR	lure	n/a	n/a	n/a	1
314.393	0.483332522	PONYTAIL	lure	n/a	n/a	n/a	1
314.876	0.533320213	BUSTER	lure	n/a	n/a	n/a	1
315.409	0.766661655	MOMMY	lure	n/a	n/a	n/a	1
316.176	0.616659128	POLISH	short	n/a	n/a	n/a	1
316.792	0.566652178	PRECEDENT	lure	n/a	n/a	n/a	1
317.359	0.483326775	DEBASEMENT	lure	n/a	n/a	n/a	1
317.842	0.649995104	HERO	lure	n/a	n/a	n/a	1
318.492	0.599991171	FORERUNNER	lure	n/a	n/a	n/a	1
319.092	0.516661591	PENITENCE	lure	n/a	n/a	n/a	1
319.609	0.399995535	FILMSTRIP	lure	n/a	n/a	n/a	1
320.009	0.449989022	SLEEPYHEAD	lure	n/a	n/a	n/a	1
320.459	0.533329452	NUT	lure	n/a	n/a	n/a	1
320.992	0.499989797	BOOKWORM	lure	n/a	n/a	n/a	1
321.492	0.449997372	FIRTH	lure	n/a	n/a	n/a	1
321.942	0.33332924	SOMERSET	lure	n/a	n/a	n/a	1
322.276	0.56665876	CREATION	lure	n/a	n/a	n/a	1
322.842	0.366661264	LADING	lure	n/a	n/a	n/a	1
323.209	0.533329298	SCRAPER	lure	n/a	n/a	n/a	1
323.742	0.649985102	COUGAR	lure	n/a	n/a	n/a	1
324.392	2.016646022	DISTRICT	long	n/a	n/a	n/a	1
326.409	0.399987444	LIAISON	lure	n/a	n/a	n/a	1
326.809	0.699991993	WRIST	lure	n/a	n/a	n/a	1
327.509	0.433329845	PECAN	lure	n/a	n/a	n/a	1
327.942	0.466660201	HAIRPIECE	lure	n/a	n/a	n/a	1
328.409	0.683324105	RETELLING	lure	n/a	n/a	n/a	1
329.092	0.666658562	PROPULSION	lure	n/a	n/a	n/a	1
329.759	0.349995142	MANE	lure	n/a	n/a	n/a	1
330.109	0.449994155	MILLER	lure	n/a	n/a	n/a	1
330.559	0.599992597	RESIDUE	lure	n/a	n/a	n/a	1
331.159	0.699984849	MIDSHIP	lure	n/a	n/a	n/a	1
331.859	0.516662775	RESURGENCE	lure	n/a	n/a	n/a	1
332.376	0.383327664	ASTRODOME	lure	n/a	n/a	n/a	1
332.759	0.61665753	CHALK	short	n/a	n/a	n/a	1
333.376	0.683329682	CANDLE	lure	n/a	n/a	n/a	1
334.059	0.449994393	INCREASE	lure	n/a	n/a	n/a	1
334.509	0.683320571	MAINLAND	lure	n/a	n/a	n/a	1
335.192	0.683324077	PILLOWCASE	lure	n/a	n/a	n/a	1
335.876	0.40019637	PENNANT	lure	n/a	n/a	n/a	1
336.276	0.7164585	VISAGE	lure	n/a	n/a	n/a	1
336.992	0.316659984	BACKPACK	lure	n/a	n/a	n/a	1
337.309	0.316664053	NUISANCE	lure	n/a	n/a	n/a	1
337.626	0.46665526	VASSAL	lure	n/a	n/a	n/a	1
338.092	0.449999229	RAMPART	lure	n/a	n/a	n/a	1
338.542	0.433325201	ABSORBENCY	lure	n/a	n/a	n/a	1
338.976	0.449994366	DIVULGENCE	lure	n/a	n/a	n/a	1
339.426	0.61665567	CONSULTANT	lure	n/a	n/a	n/a	1
340.042	0.549995845	EMBLEM	lure	n/a	n/a	n/a	1
340.592	0.449991167	FORKLIFT	lure	n/a	n/a	n/a	1
341.042	0.616661866	DOME	short	n/a	n/a	n/a	1
341.659	0.433321797	EXPENSE	lure	n/a	n/a	n/a	1
342.092	0.336289491	SODA	lure	n/a	n/a	n/a	1
342.428	0.380420348	JOGGER	lure	n/a	n/a	n/a	1
342.809	0.66660916	JOURNEYMAN	lure	n/a	n/a	n/a	1
343.475	0.716656793	BARBELL	lure	n/a	n/a	n/a	1
344.192	0.499992839	HOPSCOTCH	lure	n/a	n/a	n/a	1
344.692	0.733323933	OPERA	lure	n/a	n/a	n/a	1
345.425	0.716657114	CONCEPT	lure	n/a	n/a	n/a	1
346.142	0.683371901	DAYBED	lure	n/a	n/a	n/a	1
346.825	0.766608217	FOUNDATION	lure	n/a	n/a	n/a	1
347.592	0.733323916	MISHAP	lure	n/a	n/a	n/a	1
348.325	0.399994274	TOXICITY	lure	n/a	n/a	n/a	1
348.725	0.533322125	BOOKMARK	lure	n/a	n/a	n/a	1
349.259	2.016641669	HILL	long	n/a	n/a	n/a	1
351.275	0.599993465	UNBELIEVER	lure	n/a	n/a	n/a	1
351.875	0.516655921	SNOB	lure	n/a	n/a	n/a	1
352.392	0.566659501	DEVIANCY	lure	n/a	n/a	n/a	1
352.959	0.650051456	SUPPRESSOR	lure	n/a	n/a	n/a	1
353.609	0.516603203	SOLICITUDE	lure	n/a	n/a	n/a	1
354.125	0.349995061	GEOGRAPHER	lure	n/a	n/a	n/a	1
354.475	0.71665487	GONDOLA	lure	n/a	n/a	n/a	1
355.192	0.633325512	ELECTRON	lure	n/a	n/a	n/a	1
355.825	0.483326025	OCTANE	lure	n/a	n/a	n/a	1
356.309	0.666662	CLEFT	lure	n/a	n/a	n/a	1
356.975	0.703394641	KEYSTONE	lure	n/a	n/a	n/a	1
357.679	0.613250892	TIRE	short	n/a	n/a	n/a	1
358.292	0.516663706	FLUIDITY	lure	n/a	n/a	n/a	1
358.809	0.683321466	EXPLOSION	lure	n/a	n/a	n/a	1
359.492	0.583321393	ROCKER	lure	n/a	n/a	n/a	1
360.075	0.583368518	BIRDIE	lure	n/a	n/a	n/a	1
360.659	0.583288426	WASHCLOTH	lure	n/a	n/a	n/a	1
361.242	0.666653583	INFLOW	lure	n/a	n/a	n/a	1
361.909	0.41666288	OUTLOOK	lure	n/a	n/a	n/a	1
362.325	0.366661526	BOBTAIL	lure	n/a	n/a	n/a	1
362.692	0.666654163	PERMISSION	lure	n/a	n/a	n/a	1
363.359	0.733324915	SALESCLERK	lure	n/a	n/a	n/a	1
364.092	0.699990218	MAINSTAY	lure	n/a	n/a	n/a	1
364.792	0.683327566	BRUSHFIRE	lure	n/a	n/a	n/a	1
365.475	0.766655785	THICKET	lure	n/a	n/a	n/a	1
366.242	2.016636798	MAGNET	long	n/a	n/a	n/a	1
368.258	0.316662793	DEALER	lure	n/a	n/a	n/a	1
368.575	0.333327288	PANSY	lure	n/a	n/a	n/a	1
368.908	0.48333114	WILDFIRE	lure	n/a	n/a	n/a	1
369.392	0.666653485	CHARMER	lure	n/a	n/a	n/a	1
370.058	0.616659759	TESTICLE	lure	n/a	n/a	n/a	1
370.675	0.383327941	MARE	lure	n/a	n/a	n/a	1
371.058	0.666661112	STEPCHILD	lure	n/a	n/a	n/a	1
371.725	0.549992021	REMNANT	lure	n/a	n/a	n/a	1
372.275	0.683320719	PEROXIDE	lure	n/a	n/a	n/a	1
372.958	0.399994214	LOCATION	lure	n/a	n/a	n/a	1
373.358	0.699994009	AVOCADO	lure	n/a	n/a	n/a	1
374.058	0.416663693	INDOLENCE	lure	n/a	n/a	n/a	1
374.475	1.017490329	PINEAPPLE	fruit	931	2	2	1
375.493	0.565822114	CUBISM	lure	n/a	n/a	n/a	1
376.058	0.699984069	LAWYER	lure	n/a	n/a	n/a	1
376.758	0.349995097	AGENDA	lure	n/a	n/a	n/a	1
377.108	0.749991352	KAISER	lure	n/a	n/a	n/a	1
377.858	0.599994455	WALNUT	lure	n/a	n/a	n/a	1
378.458	0.366657768	SOPHOMORE	lure	n/a	n/a	n/a	1
378.825	0.383328049	SUPREME	lure	n/a	n/a	n/a	1
379.208	0.516661053	COCKATOO	lure	n/a	n/a	n/a	1
379.725	0.36666157	RETHINK	lure	n/a	n/a	n/a	1
380.092	0.749989463	FOOTNOTE	lure	n/a	n/a	n/a	1
380.842	0.466663426	WARLORD	lure	n/a	n/a	n/a	1
381.308	0.316658911	DRAKE	lure	n/a	n/a	n/a	1
381.625	0.366662765	GRANDPA	lure	n/a	n/a	n/a	1
381.992	0.699990023	PICKUP	lure	n/a	n/a	n/a	1
382.692	0.633327531	MISSILE	lure	n/a	n/a	n/a	1
383.325	2.016642912	PLANET	long	n/a	n/a	n/a	1
385.342	0.533320872	INHUMANITY	lure	n/a	n/a	n/a	1
385.875	0.749992362	THRIFT	lure	n/a	n/a	n/a	1
386.625	0.349991325	ALGEBRA	lure	n/a	n/a	n/a	1
386.975	0.41671354	MILKSHAKE	lure	n/a	n/a	n/a	1
387.392	0.666612041	NIGHTCLUB	lure	n/a	n/a	n/a	1
388.058	0.750028352	QUOTIENT	lure	n/a	n/a	n/a	1
388.808	0.483282063	CAPACITY	lure	n/a	n/a	n/a	1
389.292	0.666659629	SUBPLOT	lure	n/a	n/a	n/a	1
389.958	0.516661544	DUNCE	lure	n/a	n/a	n/a	1
390.475	0.533326018	DETONATION	lure	n/a	n/a	n/a	1
391.008	0.383326619	VELOCITY	lure	n/a	n/a	n/a	1
391.391	0.616656586	BATON	short	n/a	n/a	n/a	1
392.008	0.449998166	MUTTON	lure	n/a	n/a	n/a	1
392.458	0.383323174	CONCEPTION	lure	n/a	n/a	n/a	1
392.841	0.366663322	SEMICIRCLE	lure	n/a	n/a	n/a	1
393.208	0.733321894	RESHUFFLE	lure	n/a	n/a	n/a	1
393.941	0.366662468	MODERNISM	lure	n/a	n/a	n/a	1
394.308	0.599991227	ABDOMEN	lure	n/a	n/a	n/a	1
394.908	0.487283308	SLEW	lure	n/a	n/a	n/a	1
395.395	0.712701675	SPANGLE	lure	n/a	n/a	n/a	1
396.108	0.449993554	MANICURIST	lure	n/a	n/a	n/a	1
396.558	0.649994659	MILL	lure	n/a	n/a	n/a	1
397.208	0.71665452	MADMAN	lure	n/a	n/a	n/a	1
397.925	0.500043344	CONQUEROR	lure	n/a	n/a	n/a	1
398.425	0.383277745	NUMERATOR	lure	n/a	n/a	n/a	1
398.808	0.71673383	ROCKETRY	lure	n/a	n/a	n/a	1
399.525	0.616588412	COLLAR	short	n/a	n/a	n/a	1
400.141	0.666655559	RUMP	lure	n/a	n/a	n/a	1
400.808	0.566714639	KNOTHOLE	lure	n/a	n/a	n/a	1
401.375	0.466652091	INSERTION	lure	n/a	n/a	n/a	1
401.841	0.599942421	BURGER	lure	n/a	n/a	n/a	1
402.441	0.449995175	EXPANSE	lure	n/a	n/a	n/a	1
402.891	0.516659563	BULL	lure	n/a	n/a	n/a	1
403.408	0.666654779	CESSION	lure	n/a	n/a	n/a	1
404.075	0.483376825	STEREO	lure	n/a	n/a	n/a	1
404.558	0.31661043	STOCKADE	lure	n/a	n/a	n/a	1
404.875	0.683323988	ARCHANGEL	lure	n/a	n/a	n/a	1
405.558	0.599992984	EXUBERANCE	lure	n/a	n/a	n/a	1
406.158	0.787835508	FLOORBOARD	lure	n/a	n/a	n/a	1
406.946	0.72886363	TURBAN	lure	n/a	n/a	n/a	1
407.675	0.499944901	STREAMER	lure	n/a	n/a	n/a	1
408.175	2.016640247	MAST	long	n/a	n/a	n/a	1
410.191	0.499989904	SPEAKER	lure	n/a	n/a	n/a	1
410.691	0.399992708	MILESTONE	lure	n/a	n/a	n/a	1
411.091	0.56666239	CLASSICIST	lure	n/a	n/a	n/a	1
411.658	0.399991531	SCORPION	lure	n/a	n/a	n/a	1
412.058	0.616662682	POLYGAMY	lure	n/a	n/a	n/a	1
412.675	0.383326783	MASON	lure	n/a	n/a	n/a	1
413.058	0.649991221	PORPOISE	lure	n/a	n/a	n/a	1
413.708	0.349991071	SCOUNDREL	lure	n/a	n/a	n/a	1
414.058	0.466714695	UNDERGRAD	lure	n/a	n/a	n/a	1
414.525	0.383277519	WHISKER	lure	n/a	n/a	n/a	1
414.908	0.399994965	ABBEY	lure	n/a	n/a	n/a	1
415.308	0.73332371	EVANGELIST	lure	n/a	n/a	n/a	1
416.041	0.733325778	BLACKHEAD	lure	n/a	n/a	n/a	1
416.774	0.61665472	ROPE	short	n/a	n/a	n/a	1
417.391	0.402594211	ULTIMATUM	lure	n/a	n/a	n/a	1
417.794	0.397397187	WAIVER	lure	n/a	n/a	n/a	1
418.191	0.716656129	BULLETIN	lure	n/a	n/a	n/a	1
418.908	0.499989931	OUTLET	lure	n/a	n/a	n/a	1
419.408	0.683328063	TRAPEZE	lure	n/a	n/a	n/a	1
420.091	0.399994234	SQUADRON	lure	n/a	n/a	n/a	1
420.491	0.752972533	ADEQUACY	lure	n/a	n/a	n/a	1
421.244	0.66372014	DWELLER	lure	n/a	n/a	n/a	1
421.908	0.416611467	HANGMAN	lure	n/a	n/a	n/a	1
422.324	0.466664234	TOOTHPASTE	lure	n/a	n/a	n/a	1
422.791	0.716654956	SUCCESSION	lure	n/a	n/a	n/a	1
423.508	0.649993022	FATSO	lure	n/a	n/a	n/a	1
424.158	0.583325068	WILDLIFE	lure	n/a	n/a	n/a	1
424.741	0.416661527	WORKOUT	lure	n/a	n/a	n/a	1
425.158	1.016651448	CRANBERRY	fruit	825	2	2	1
426.174	0.699992869	RHINESTONE	lure	n/a	n/a	n/a	1
426.874	0.503402027	LIVELIHOOD	lure	n/a	n/a	n/a	1
427.378	0.329917238	TUMBLEWEED	lure	n/a	n/a	n/a	1
427.708	0.483325007	PARITY	lure	n/a	n/a	n/a	1
428.191	0.399994574	CROSSWIND	lure	n/a	n/a	n/a	1
428.591	0.433327392	JESTER	lure	n/a	n/a	n/a	1
429.024	0.516710453	HEADMAN	lure	n/a	n/a	n/a	1
429.541	0.583279373	CHANTER	lure	n/a	n/a	n/a	1
430.124	0.349995283	WONDERLAND	lure	n/a	n/a	n/a	1
430.474	0.533321757	RELEVANCY	lure	n/a	n/a	n/a	1
431.008	0.666659484	RUBELLA	lure	n/a	n/a	n/a	1
431.674	0.39999698	AURORA	lure	n/a	n/a	n/a	1
432.074	0.666653072	ASSIGNMENT	lure	n/a	n/a	n/a	1
432.741	0.483330459	UNIT	lure	n/a	n/a	n/a	1
433.224	1.021185802	NECTARINE	fruit	710	2	2	1
434.245	0.678794714	ROYALE	lure	n/a	n/a	n/a	1
434.924	0.749986854	MINUTEMEN	lure	n/a	n/a	n/a	1
435.674	0.616660115	PINBALL	lure	n/a	n/a	n/a	1
436.291	0.433324036	SWEATSHOP	lure	n/a	n/a	n/a	1
436.724	0.383331146	ACCIDENT	lure	n/a	n/a	n/a	1
437.108	0.649988161	CORPORAL	lure	n/a	n/a	n/a	1
437.758	0.749987999	HANDRAIL	lure	n/a	n/a	n/a	1
438.508	0.649991756	SNOBBERY	lure	n/a	n/a	n/a	1
439.158	0.416664592	NUTHOUSE	lure	n/a	n/a	n/a	1
439.574	0.433325371	TABULATION	lure	n/a	n/a	n/a	1
440.007	0.633374153	CARRIER	lure	n/a	n/a	n/a	1
440.641	0.499948248	ACTIVITY	lure	n/a	n/a	n/a	1
441.141	0.550046499	DEFINITION	lure	n/a	n/a	n/a	1
441.691	2.016580377	SUDS	long	n/a	n/a	n/a	1
443.707	0.466660808	ADMONITION	lure	n/a	n/a	n/a	1
444.174	0.350000081	COMMUNITY	lure	n/a	n/a	n/a	1
444.524	0.533319894	PEACOCK	lure	n/a	n/a	n/a	1
445.057	0.600040316	LAGOON	lure	n/a	n/a	n/a	1
445.657	0.433282692	POPULISM	lure	n/a	n/a	n/a	1
446.091	0.601833526	SHORTAGE	lure	n/a	n/a	n/a	1
446.693	0.598146511	CLAN	lure	n/a	n/a	n/a	1
447.291	0.7666603	GLYCERIN	lure	n/a	n/a	n/a	1
448.057	0.699989575	CHINAWARE	lure	n/a	n/a	n/a	1
448.757	0.533327129	BRIDGEWORK	lure	n/a	n/a	n/a	1
449.291	0.349995638	CARROT	lure	n/a	n/a	n/a	1
449.641	2.016638129	CURTAIN	long	n/a	n/a	n/a	1
451.657	0.5833257	STAMINA	lure	n/a	n/a	n/a	1
452.241	0.51666167	MONOGRAM	lure	n/a	n/a	n/a	1
452.757	0.533322276	NOZZLE	lure	n/a	n/a	n/a	1
453.291	0.349996156	GROWTH	lure	n/a	n/a	n/a	1
453.641	0.583324844	RIGGER	lure	n/a	n/a	n/a	1
454.224	0.333328287	TERROR	lure	n/a	n/a	n/a	1
454.557	0.750052291	APPENDIX	lure	n/a	n/a	n/a	1
455.307	0.649931555	POPPYCOCK	lure	n/a	n/a	n/a	1
455.957	0.549994248	SEIZURE	lure	n/a	n/a	n/a	1
456.507	0.699986003	JAWBONE	lure	n/a	n/a	n/a	1
457.207	0.71665699	RETAKE	lure	n/a	n/a	n/a	1
457.924	0.516659981	MEGAPHONE	lure	n/a	n/a	n/a	1
458.441	0.316661404	CONJUNCT	lure	n/a	n/a	n/a	1
458.757	0.733326774	HUMIDITY	lure	n/a	n/a	n/a	1
459.491	0.751952761	GLEE	lure	n/a	n/a	n/a	1
460.243	0.448032466	KNOLL	lure	n/a	n/a	n/a	1
460.691	0.766654166	INGESTION	lure	n/a	n/a	n/a	1
461.457	0.4833287	FRAGMENT	lure	n/a	n/a	n/a	1
461.941	0.399995599	PHONEBOOTH	lure	n/a	n/a	n/a	1
462.341	0.483322841	SALUTATION	lure	n/a	n/a	n/a	1
462.824	0.41666616	COOKOUT	lure	n/a	n/a	n/a	1
463.241	0.333322513	CONGRUITY	lure	n/a	n/a	n/a	1
463.574	0.699990835	DISTILLER	lure	n/a	n/a	n/a	1
464.274	0.383329417	THEW	lure	n/a	n/a	n/a	1
464.657	n/a	HUT	lure	n/a	n/a	n/a	1