onset	duration	cond	RT	resp	cresp	acc
5.015	0.917	face	n/a	n/a	n/a	1
6.015	0.917	face	n/a	n/a	n/a	1
7.015	0.917	face	478	2	2	1
7.998	0.917	face	n/a	n/a	n/a	1
9.015	0.917	face	366	2	2	1
9.998	0.917	face	n/a	n/a	n/a	1
11.015	0.917	face	n/a	n/a	n/a	1
11.998	0.917	face	n/a	n/a	n/a	1
13.015	0.9	face	534	2	2	1
14.015	0.917	face	n/a	n/a	n/a	1
14.998	0.917	face	375	2	2	1
16.015	0.917	face	n/a	n/a	n/a	1
16.998	0.917	face	407	2	2	1
18.015	0.9	face	n/a	n/a	n/a	1
19.015	0.917	face	n/a	n/a	n/a	1
19.998	0.917	face	407	2	2	1
31.048	0.9	word	n/a	n/a	n/a	1
31.998	0.917	word	n/a	n/a	n/a	1
33.014	0.917	word	383	2	2	1
33.998	0.917	word	n/a	n/a	n/a	1
35.014	0.917	word	351	2	2	1
35.998	0.9	word	n/a	n/a	n/a	1
36.998	0.917	word	n/a	n/a	n/a	1
38.014	0.917	word	343	2	2	1
38.998	0.917	word	n/a	n/a	n/a	1
40.014	0.917	word	n/a	n/a	n/a	1
40.998	0.917	word	n/a	n/a	n/a	1
42.014	0.917	word	535	2	2	1
43.014	0.917	word	n/a	n/a	n/a	1
44.014	0.917	word	343	2	2	1
45.014	0.9	word	n/a	n/a	n/a	1
46.014	0.917	word	335	2	2	1
57.064	0.917	scene	n/a	n/a	n/a	1
58.014	0.917	scene	n/a	n/a	n/a	1
58.997	0.917	scene	368	2	2	1
60.014	0.9	scene	n/a	n/a	n/a	1
61.014	0.917	scene	335	2	2	1
61.997	0.917	scene	n/a	n/a	n/a	1
63.014	0.917	scene	351	2	2	1
63.997	0.917	scene	n/a	n/a	n/a	1
65.014	0.9	scene	n/a	n/a	n/a	1
66.014	0.917	scene	343	2	2	1
66.997	0.917	scene	n/a	n/a	n/a	1
68.014	0.917	scene	343	2	2	1
69.014	0.917	scene	n/a	n/a	n/a	1
70.014	0.917	scene	351	2	2	1
70.997	0.917	scene	n/a	n/a	n/a	1
72.014	0.917	scene	n/a	n/a	n/a	1
83.064	0.917	car	n/a	n/a	n/a	1
84.014	0.917	car	391	2	2	1
84.997	0.917	car	n/a	n/a	n/a	1
86.014	0.917	car	n/a	n/a	n/a	1
86.997	0.917	car	n/a	n/a	n/a	1
88.014	0.917	car	n/a	n/a	n/a	1
88.997	0.917	car	376	2	2	1
90.014	0.917	car	n/a	n/a	n/a	1
91.014	0.917	car	367	2	2	1
91.997	0.917	car	n/a	n/a	n/a	1
93.014	0.917	car	n/a	n/a	n/a	1
93.997	0.917	car	376	2	2	1
95.014	0.917	car	n/a	n/a	n/a	1
96.014	0.917	car	375	2	2	1
97.014	0.917	car	n/a	n/a	n/a	1
98.014	0.918	car	367	2	2	1
109.08	0.917	face	n/a	n/a	n/a	1
110.03	0.917	face	367	2	2	1
111.013	0.917	face	n/a	n/a	n/a	1
112.013	0.917	face	344	2	2	1
113.013	0.917	face	n/a	n/a	n/a	1
114.013	0.917	face	352	2	2	1
115.013	0.917	face	n/a	n/a	n/a	1
116.013	0.9	face	n/a	n/a	n/a	1
117.013	0.917	face	n/a	n/a	n/a	1
118.013	0.917	face	336	2	2	1
119.013	0.917	face	n/a	n/a	n/a	1
120.013	0.917	face	360	2	2	1
121.013	0.917	face	n/a	n/a	n/a	1
122.013	0.917	face	n/a	n/a	n/a	1
123.013	0.917	face	352	2	2	1
124.013	0.917	face	n/a	n/a	n/a	1
135.063	0.917	scene	n/a	n/a	n/a	1
136.013	0.917	scene	368	2	2	1
137.013	0.9	scene	n/a	n/a	n/a	1
138.013	0.917	scene	360	2	2	1
139.013	0.9	scene	n/a	n/a	n/a	1
140.013	0.9	scene	n/a	n/a	n/a	1
141.013	0.917	scene	352	2	2	1
142.013	0.917	scene	n/a	n/a	n/a	1
143.013	0.917	scene	376	2	2	1
144.013	0.9	scene	n/a	n/a	n/a	1
144.996	0.917	scene	n/a	n/a	n/a	1
146.013	0.9	scene	n/a	n/a	n/a	1
147.013	0.917	scene	n/a	n/a	n/a	1
148.013	0.917	scene	400	2	2	1
149.013	0.917	scene	n/a	n/a	n/a	1
150.013	0.918	scene	408	2	2	1
161.079	0.9	word	n/a	n/a	n/a	1
162.013	0.917	word	n/a	n/a	n/a	1
163.013	0.917	word	n/a	n/a	n/a	1
164.013	0.917	word	368	2	2	1
165.013	0.917	word	n/a	n/a	n/a	1
166.013	0.9	word	n/a	n/a	n/a	1
166.996	0.917	word	345	2	2	1
168.013	0.917	word	n/a	n/a	n/a	1
169.013	0.917	word	440	2	2	1
170.013	0.917	word	n/a	n/a	n/a	1
171.013	0.917	word	376	2	2	1
172.013	0.917	word	n/a	n/a	n/a	1
173.013	0.917	word	n/a	n/a	n/a	1
174.012	0.917	word	360	2	2	1
175.012	0.9	word	n/a	n/a	n/a	1
175.996	0.917	word	361	2	2	1
187.063	0.916	car	n/a	n/a	n/a	1
188.012	0.917	car	361	2	2	1
189.012	0.917	car	n/a	n/a	n/a	1
190.012	0.917	car	393	2	2	1
191.012	0.917	car	n/a	n/a	n/a	1
192.012	0.917	car	n/a	n/a	n/a	1
193.012	0.917	car	n/a	n/a	n/a	1
194.012	0.917	car	n/a	n/a	n/a	1
195.012	0.917	car	345	2	2	1
196.012	0.917	car	n/a	n/a	n/a	1
197.012	0.917	car	393	2	2	1
198.012	0.917	car	n/a	n/a	n/a	1
199.012	0.917	car	361	2	2	1
200.012	0.917	car	n/a	n/a	n/a	1
201.012	0.917	car	337	2	2	1
202.012	0.917	car	n/a	n/a	n/a	1
213.079	0.917	car	n/a	n/a	n/a	1
214.029	0.917	car	312	2	2	1
215.012	0.917	car	n/a	n/a	n/a	1
216.012	0.917	car	n/a	n/a	n/a	1
217.012	0.9	car	n/a	n/a	n/a	1
218.012	0.917	car	369	2	2	1
219.012	0.9	car	n/a	n/a	n/a	1
220.012	0.917	car	n/a	n/a	n/a	1
221.012	0.917	car	345	2	2	1
222.012	0.917	car	n/a	n/a	n/a	1
223.012	0.917	car	361	2	2	1
224.012	0.917	car	n/a	n/a	n/a	1
225.012	0.917	car	409	2	2	1
226.012	0.9	car	n/a	n/a	n/a	1
227.012	0.917	car	393	2	2	1
227.995	0.9	car	n/a	n/a	n/a	1
239.046	0.916	scene	n/a	n/a	n/a	1
240.012	0.917	scene	n/a	n/a	n/a	1
241.012	0.917	scene	n/a	n/a	n/a	1
242.012	0.917	scene	353	2	2	1
243.012	0.917	scene	n/a	n/a	n/a	1
244.012	0.917	scene	n/a	n/a	n/a	1
245.012	0.917	scene	354	2	2	1
246.012	0.917	scene	n/a	n/a	n/a	1
247.012	0.917	scene	354	2	2	1
248.011	0.9	scene	n/a	n/a	n/a	1
249.011	0.917	scene	n/a	n/a	n/a	1
250.011	0.917	scene	362	2	2	1
251.011	0.9	scene	n/a	n/a	n/a	1
252.011	0.917	scene	442	2	2	1
253.011	0.917	scene	n/a	n/a	n/a	1
254.011	0.917	scene	442	2	2	1
265.079	0.916	word	n/a	n/a	n/a	1
266.028	0.917	word	n/a	n/a	n/a	1
267.011	0.917	word	n/a	n/a	n/a	1
268.011	0.917	word	250	2	2	1
269.011	0.917	word	n/a	n/a	n/a	1
270.011	0.917	word	354	2	2	1
271.011	0.917	word	n/a	n/a	n/a	1
272.011	0.917	word	354	2	2	1
273.011	0.917	word	n/a	n/a	n/a	1
274.011	0.917	word	394	2	2	1
275.011	0.917	word	n/a	n/a	n/a	1
276.011	0.917	word	330	2	2	1
277.011	0.917	word	n/a	n/a	n/a	1
278.011	0.9	word	338	2	2	1
279.011	0.9	word	n/a	n/a	n/a	1
280.011	0.917	word	n/a	n/a	n/a	1
291.08	0.914	face	n/a	n/a	n/a	1
292.028	0.917	face	329	2	2	1
293.011	0.9	face	n/a	n/a	n/a	1
294.011	0.917	face	n/a	n/a	n/a	1
295.011	0.917	face	330	2	2	1
296.011	0.917	face	n/a	n/a	n/a	1
297.011	0.917	face	346	2	2	1
298.011	0.917	face	n/a	n/a	n/a	1
299.011	0.917	face	338	2	2	1
300.011	0.917	face	n/a	n/a	n/a	1
301.011	0.917	face	330	2	2	1
302.011	0.917	face	n/a	n/a	n/a	1
303.011	0.917	face	n/a	n/a	n/a	1
304.011	0.917	face	n/a	n/a	n/a	1
305.011	0.917	face	410	2	2	1
306.011	0.917	face	n/a	n/a	n/a	1
317.08	0.914	face	n/a	n/a	n/a	1
318.027	0.917	face	354	2	2	1
319.011	0.917	face	n/a	n/a	n/a	1
320.011	0.9	face	n/a	n/a	n/a	1
321.011	0.917	face	n/a	n/a	n/a	1
322.01	0.917	face	n/a	n/a	n/a	1
323.01	0.917	face	386	2	2	1
324.01	0.917	face	n/a	n/a	n/a	1
325.01	0.917	face	362	2	2	1
326.01	0.917	face	n/a	n/a	n/a	1
327.01	0.917	face	354	2	2	1
328.01	0.917	face	n/a	n/a	n/a	1
329.01	0.917	face	n/a	n/a	n/a	1
330.01	0.917	face	355	2	2	1
331.01	0.917	face	n/a	n/a	n/a	1
332.01	0.917	face	371	2	2	1
343.077	0.917	word	n/a	n/a	n/a	1
344.044	0.917	word	345	2	2	1
345.01	0.921	word	n/a	n/a	n/a	1
346.01	0.917	word	387	2	2	1
347.01	0.917	word	n/a	n/a	n/a	1
348.01	0.917	word	363	2	2	1
349.01	0.917	word	n/a	n/a	n/a	1
350.01	0.917	word	331	2	2	1
351.01	0.917	word	n/a	n/a	n/a	1
352.01	0.917	word	n/a	n/a	n/a	1
353.01	0.9	word	n/a	n/a	n/a	1
354.01	0.917	word	451	2	2	1
355.01	0.917	word	n/a	n/a	n/a	1
356.01	0.917	word	n/a	n/a	n/a	1
357.01	0.917	word	371	2	2	1
358.01	0.917	word	n/a	n/a	n/a	1
369.077	0.9	car	n/a	n/a	n/a	1
370.027	0.917	car	n/a	n/a	n/a	1
371.01	0.921	car	n/a	n/a	n/a	1
372.01	0.917	car	363	2	2	1
373.01	0.917	car	n/a	n/a	n/a	1
374.01	0.917	car	363	2	2	1
375.01	0.917	car	n/a	n/a	n/a	1
376.01	0.917	car	n/a	n/a	n/a	1
377.01	0.9	car	347	2	2	1
378.01	0.917	car	n/a	n/a	n/a	1
379.01	0.917	car	363	2	n/a	0
380.01	0.9	car	n/a	n/a	2	0
381.01	0.917	car	n/a	n/a	n/a	1
382.01	0.917	car	379	2	2	1
383.01	0.9	car	n/a	n/a	n/a	1
384.01	0.917	car	371	2	2	1
395.076	0.917	scene	n/a	n/a	n/a	1
396.043	0.917	scene	n/a	n/a	n/a	1
397.009	0.917	scene	356	2	2	1
398.009	0.917	scene	n/a	n/a	n/a	1
399.009	0.9	scene	n/a	n/a	n/a	1
400.009	0.917	scene	356	2	2	1
401.009	0.917	scene	n/a	n/a	n/a	1
402.009	0.917	scene	412	2	2	1
403.009	0.9	scene	n/a	n/a	n/a	1
404.009	0.919	scene	356	2	2	1
405.009	0.917	scene	n/a	n/a	n/a	1
406.009	0.9	scene	n/a	n/a	n/a	1
407.009	0.9	scene	n/a	n/a	n/a	1
408.009	0.9	scene	348	2	2	1
409.009	0.9	scene	n/a	n/a	n/a	1
410.009	0.917	scene	372	2	2	1
421.076	0.917	word	n/a	n/a	n/a	1
422.042	0.917	word	n/a	n/a	n/a	1
423.009	0.9	word	340	2	2	1
424.009	0.917	word	n/a	n/a	n/a	1
425.009	0.917	word	340	2	2	1
426.009	0.917	word	n/a	n/a	n/a	1
427.009	0.917	word	396	2	2	1
428.009	0.917	word	n/a	n/a	n/a	1
429.009	0.9	word	n/a	n/a	n/a	1
430.009	0.917	word	364	2	2	1
431.009	0.917	word	n/a	n/a	n/a	1
432.009	0.917	word	396	2	2	1
433.009	0.917	word	n/a	n/a	n/a	1
434.009	0.918	word	348	2	2	1
435.009	0.917	word	n/a	n/a	n/a	1
436.009	0.917	word	n/a	n/a	n/a	1
447.075	0.917	face	n/a	n/a	n/a	1
448.042	0.917	face	315	2	2	1
449.009	0.917	face	n/a	n/a	n/a	1
450.009	0.917	face	n/a	n/a	n/a	1
451.009	0.917	face	348	2	2	1
452.009	0.917	face	n/a	n/a	n/a	1
453.009	0.9	face	n/a	n/a	n/a	1
454.009	0.917	face	332	2	2	1
455.009	0.917	face	n/a	n/a	n/a	1
456.009	0.917	face	n/a	n/a	n/a	1
457.009	0.917	face	332	2	2	1
458.009	0.917	face	n/a	n/a	n/a	1
459.009	0.917	face	380	2	2	1
460.009	0.917	face	n/a	n/a	n/a	1
461.009	0.9	face	348	2	2	1
462.009	0.917	face	n/a	n/a	n/a	1
473.075	0.9	car	n/a	n/a	n/a	1
474.025	0.917	car	n/a	n/a	n/a	1
475.008	0.9	car	349	2	2	1
476.008	0.917	car	n/a	n/a	n/a	1
477.008	0.917	car	389	2	2	1
478.008	0.917	car	n/a	n/a	n/a	1
479.008	0.918	car	357	2	2	1
480.008	0.9	car	n/a	n/a	n/a	1
481.008	0.917	car	n/a	n/a	n/a	1
482.008	0.917	car	373	2	2	1
483.008	0.917	car	n/a	n/a	n/a	1
484.008	0.917	car	405	2	2	1
485.008	0.917	car	n/a	n/a	n/a	1
486.008	0.9	car	n/a	n/a	n/a	1
487.008	0.917	car	365	2	2	1
488.008	0.917	car	n/a	n/a	n/a	1
499.075	0.9	scene	n/a	n/a	n/a	1
500.025	0.9	scene	n/a	n/a	n/a	1
501.008	0.92	scene	n/a	n/a	n/a	1
502.008	0.917	scene	373	2	2	1
503.008	0.917	scene	n/a	n/a	n/a	1
504.008	0.917	scene	341	2	2	1
505.008	0.917	scene	n/a	n/a	n/a	1
506.008	0.917	scene	n/a	n/a	n/a	1
507.008	0.917	scene	325	2	2	1
508.008	0.917	scene	n/a	n/a	n/a	1
509.008	0.917	scene	333	2	2	1
510.008	0.9	scene	n/a	n/a	n/a	1
511.008	0.919	scene	357	2	2	1
512.008	0.917	scene	n/a	n/a	n/a	1
513.008	0.917	scene	n/a	n/a	n/a	1
514.008	0.917	scene	325	2	2	1
525.074	0.917	word	n/a	n/a	n/a	1
526.041	0.917	word	n/a	n/a	n/a	1
527.008	0.917	word	n/a	n/a	n/a	1
528.008	0.917	word	341	2	2	1
529.008	0.917	word	n/a	n/a	n/a	1
530.008	0.917	word	365	2	2	1
531.008	0.917	word	n/a	n/a	n/a	1
532.008	0.919	word	429	2	2	1
533.008	0.917	word	n/a	n/a	n/a	1
534.008	0.917	word	397	2	2	1
535.008	0.917	word	n/a	n/a	n/a	1
536.008	0.9	word	n/a	n/a	n/a	1
537.008	0.917	word	349	2	2	1
538.008	0.917	word	n/a	n/a	n/a	1
539.008	0.917	word	405	2	2	1
540.008	0.917	word	n/a	n/a	n/a	1
551.074	0.917	scene	n/a	n/a	n/a	1
552.041	0.917	scene	n/a	n/a	n/a	1
553.007	0.917	scene	334	2	2	1
554.007	0.917	scene	n/a	n/a	n/a	1
555.007	0.917	scene	350	2	2	1
556.007	0.9	scene	n/a	n/a	n/a	1
557.007	0.917	scene	n/a	n/a	n/a	1
558.007	0.917	scene	358	2	2	1
559.007	0.917	scene	n/a	n/a	n/a	1
560.007	0.917	scene	n/a	n/a	n/a	1
561.007	0.917	scene	334	2	2	1
562.007	0.917	scene	n/a	n/a	n/a	1
563.007	0.917	scene	374	2	2	1
564.007	0.9	scene	n/a	n/a	n/a	1
565.007	0.917	scene	n/a	n/a	n/a	1
566.007	0.917	scene	326	2	2	1
577.074	0.917	face	n/a	n/a	n/a	1
578.04	0.917	face	317	2	2	1
579.007	0.917	face	n/a	n/a	n/a	1
580.007	0.917	face	n/a	n/a	n/a	1
581.007	0.9	face	n/a	n/a	n/a	1
582.007	0.917	face	342	2	2	1
583.007	0.9	face	n/a	n/a	n/a	1
584.007	0.917	face	n/a	n/a	n/a	1
585.007	0.917	face	350	2	2	1
586.007	0.9	face	n/a	n/a	n/a	1
587.007	0.917	face	382	2	2	1
588.007	0.917	face	n/a	n/a	n/a	1
589.007	0.917	face	342	2	2	1
590.007	0.9	face	n/a	n/a	n/a	1
591.007	0.9	face	n/a	n/a	n/a	1
592.007	0.917	face	334	2	2	1
603.073	0.9	car	n/a	n/a	n/a	1
604.027	0.913	car	n/a	n/a	n/a	1
605.007	0.917	car	374	2	2	1
606.007	0.917	car	n/a	n/a	n/a	1
607.007	0.917	car	398	2	2	1
608.007	0.9	car	n/a	n/a	n/a	1
609.007	0.917	car	n/a	n/a	n/a	1
610.007	0.917	car	374	2	2	1
611.007	0.917	car	n/a	n/a	n/a	1
612.007	0.917	car	366	2	n/a	0
613.007	0.917	car	710	2	2	1
614.007	0.917	car	n/a	n/a	n/a	1
615.007	0.917	car	366	2	2	1
616.007	0.917	car	n/a	n/a	n/a	1
617.007	0.917	car	383	2	2	1
618.006	0.917	car	n/a	n/a	n/a	1