onset	duration	stim	cond	RT	resp	cresp	acc
4.053	0.449996536	POSSE	lure	n/a	n/a	n/a	1
4.503	0.399992785	REBELLION	lure	n/a	n/a	n/a	1
4.903	0.349991349	CATACOMB	lure	n/a	n/a	n/a	1
5.253	0.549993668	FLOOZY	lure	n/a	n/a	n/a	1
5.803	0.649993695	MAMA	lure	n/a	n/a	n/a	1
6.453	0.600357735	DISSENTER	lure	n/a	n/a	n/a	1
7.053	0.649627242	CLIPPER	lure	n/a	n/a	n/a	1
7.703	2.016637563	CURTAIN	long	n/a	n/a	n/a	1
9.719	0.334002585	SPROCKET	lure	n/a	n/a	n/a	1
10.053	0.415983848	EXPEDITION	lure	n/a	n/a	n/a	1
10.469	0.333332686	BAGFUL	lure	n/a	n/a	n/a	1
10.803	0.599992277	PACKET	lure	n/a	n/a	n/a	1
11.403	0.750033386	APRON	lure	n/a	n/a	n/a	1
12.153	0.316620182	BLADE	lure	n/a	n/a	n/a	1
12.469	0.699988565	EPISTLE	lure	n/a	n/a	n/a	1
13.169	0.483325909	CONFETTI	lure	n/a	n/a	n/a	1
13.653	0.699993931	BOOZER	lure	n/a	n/a	n/a	1
14.353	0.533319077	FLASHBULB	lure	n/a	n/a	n/a	1
14.886	0.483329494	LUNGPOWER	lure	n/a	n/a	n/a	1
15.369	0.699991573	BOOKSHOP	lure	n/a	n/a	n/a	1
16.069	1.016655173	MULBERRY	fruit	633	2	2	1
17.086	0.566655233	KNACK	lure	n/a	n/a	n/a	1
17.653	0.466662711	LAXATIVE	lure	n/a	n/a	n/a	1
18.119	0.349992621	SURCHARGE	lure	n/a	n/a	n/a	1
18.469	0.533329186	URGENCY	lure	n/a	n/a	n/a	1
19.003	0.316664057	HYMNAL	lure	n/a	n/a	n/a	1
19.319	0.616655007	BURGLARY	lure	n/a	n/a	n/a	1
19.936	0.633324859	RAINBOW	lure	n/a	n/a	n/a	1
20.569	0.38332622	PETITIONER	lure	n/a	n/a	n/a	1
20.953	0.449992133	IMMOBILITY	lure	n/a	n/a	n/a	1
21.403	0.38333323	FIANCEE	lure	n/a	n/a	n/a	1
21.786	0.666694911	INCISOR	lure	n/a	n/a	n/a	1
22.453	0.466621527	GOLFER	lure	n/a	n/a	n/a	1
22.919	0.749988818	VAPOR	lure	n/a	n/a	n/a	1
23.669	0.66665671	SKINNER	lure	n/a	n/a	n/a	1
24.336	0.616662609	MOUNTAIN	short	n/a	n/a	n/a	1
24.953	0.499990192	DELEGATE	lure	n/a	n/a	n/a	1
25.453	0.466660681	DECANTER	lure	n/a	n/a	n/a	1
25.919	0.399990452	PREMIUM	lure	n/a	n/a	n/a	1
26.319	0.716709907	FOOTSIE	lure	n/a	n/a	n/a	1
27.036	0.568918988	WATERSPOUT	lure	n/a	n/a	n/a	1
27.605	0.647682202	DEJECTION	lure	n/a	n/a	n/a	1
28.252	0.533324827	OBSERVER	lure	n/a	n/a	n/a	1
28.786	0.333330491	INFLUENZA	lure	n/a	n/a	n/a	1
29.119	0.633320113	SPREADER	lure	n/a	n/a	n/a	1
29.752	0.58332789	ARTIFACT	lure	n/a	n/a	n/a	1
30.336	0.620358663	OVERLORD	lure	n/a	n/a	n/a	1
30.956	0.412962261	TRAJECTORY	lure	n/a	n/a	n/a	1
31.369	0.549989465	TRIVIALITY	lure	n/a	n/a	n/a	1
31.919	0.366712682	BRAVERY	lure	n/a	n/a	n/a	1
32.286	2.016592947	MAGNET	long	n/a	n/a	n/a	1
34.302	0.333325242	EUPHORIA	lure	n/a	n/a	n/a	1
34.636	0.483326515	THIMBLE	lure	n/a	n/a	n/a	1
35.119	0.349997185	ENTRY	lure	n/a	n/a	n/a	1
35.469	0.316659477	ARCHER	lure	n/a	n/a	n/a	1
35.786	0.683327246	CONVENTION	lure	n/a	n/a	n/a	1
36.469	0.399993083	POSTAGE	lure	n/a	n/a	n/a	1
36.869	0.433330553	COP	lure	n/a	n/a	n/a	1
37.302	0.416659988	MARQUEE	lure	n/a	n/a	n/a	1
37.719	0.433326388	EVOCATION	lure	n/a	n/a	n/a	1
38.152	0.549994311	AFTERNOON	lure	n/a	n/a	n/a	1
38.702	0.733323311	RAGTIME	lure	n/a	n/a	n/a	1
39.436	0.716657644	FLOODLIGHT	lure	n/a	n/a	n/a	1
40.152	0.683318508	MOUTHPIECE	lure	n/a	n/a	n/a	1
40.836	2.016642579	HILL	long	n/a	n/a	n/a	1
42.852	0.716654956	CAPSULE	lure	n/a	n/a	n/a	1
43.569	0.583328668	BARLEY	lure	n/a	n/a	n/a	1
44.152	0.349990747	FIASCO	lure	n/a	n/a	n/a	1
44.502	0.749992531	HEDONISM	lure	n/a	n/a	n/a	1
45.252	0.699990835	WRIGHT	lure	n/a	n/a	n/a	1
45.952	0.533327097	CASSEROLE	lure	n/a	n/a	n/a	1
46.486	0.485846518	KINFOLK	lure	n/a	n/a	n/a	1
46.971	0.564139192	NONPAYMENT	lure	n/a	n/a	n/a	1
47.536	0.333327924	GYMNAST	lure	n/a	n/a	n/a	1
47.869	0.566656466	UNDERWOOD	lure	n/a	n/a	n/a	1
48.436	0.716662222	MIDDLEMAN	lure	n/a	n/a	n/a	1
49.152	1.016649146	BLACKBERRY	fruit	534	2	2	1
50.169	0.499991893	SOFA	lure	n/a	n/a	n/a	1
50.669	0.699993352	REVEREND	lure	n/a	n/a	n/a	1
51.369	0.349990527	BOXCAR	lure	n/a	n/a	n/a	1
51.719	0.733324786	JAILBREAK	lure	n/a	n/a	n/a	1
52.452	0.483327956	PETUNIA	lure	n/a	n/a	n/a	1
52.935	0.533329322	VIOLET	lure	n/a	n/a	n/a	1
53.469	0.716652473	TRAUMA	lure	n/a	n/a	n/a	1
54.185	0.433331824	HUNK	lure	n/a	n/a	n/a	1
54.619	0.466655193	SWEETIE	lure	n/a	n/a	n/a	1
55.085	0.43332736	VEST	lure	n/a	n/a	n/a	1
55.519	0.649997149	HUNCHBACK	lure	n/a	n/a	n/a	1
56.169	0.466655179	TOUCHDOWN	lure	n/a	n/a	n/a	1
56.635	0.649991887	FINGERNAIL	lure	n/a	n/a	n/a	1
57.285	0.616660765	ROPE	short	n/a	n/a	n/a	1
57.902	0.33332715	PROPANE	lure	n/a	n/a	n/a	1
58.235	0.766658096	BOARDROOM	lure	n/a	n/a	n/a	1
59.002	0.766655636	PROTOTYPE	lure	n/a	n/a	n/a	1
59.769	0.616658984	FRESHMAN	lure	n/a	n/a	n/a	1
60.385	0.74999139	DUSK	lure	n/a	n/a	n/a	1
61.135	0.51665427	GOALPOST	lure	n/a	n/a	n/a	1
61.652	0.599991998	DASHBOARD	lure	n/a	n/a	n/a	1
62.252	0.419092554	SHOWMAN	lure	n/a	n/a	n/a	1
62.671	0.614226529	BULKHEAD	lure	n/a	n/a	n/a	1
63.285	0.516662892	CHAPEL	lure	n/a	n/a	n/a	1
63.802	0.583323859	AIRFIELD	lure	n/a	n/a	n/a	1
64.385	0.533323799	CLOVE	lure	n/a	n/a	n/a	1
64.919	0.516664036	ANTIPATHY	lure	n/a	n/a	n/a	1
65.435	0.333333145	CIGAR	lure	n/a	n/a	n/a	1
65.769	2.016633229	SUDS	long	n/a	n/a	n/a	1
67.785	0.583327677	NUMERATION	lure	n/a	n/a	n/a	1
68.369	0.403175495	MOONSTONE	lure	n/a	n/a	n/a	1
68.772	0.680138843	MAGNOLIA	lure	n/a	n/a	n/a	1
69.452	0.449999562	AUCTIONEER	lure	243	2	n/a	0
69.902	0.416657517	CLASSICISM	lure	n/a	n/a	n/a	1
70.319	0.699992571	PEDESTAL	lure	n/a	n/a	n/a	1
71.019	0.366662195	SQUATTER	lure	n/a	n/a	n/a	1
71.385	0.366661701	ZENITH	lure	n/a	n/a	n/a	1
71.752	0.516658209	FARMHOUSE	lure	n/a	n/a	n/a	1
72.269	0.399992487	ANACONDA	lure	n/a	n/a	n/a	1
72.669	0.333330758	CAPE	lure	n/a	n/a	n/a	1
73.002	0.683324723	TERRACE	lure	n/a	n/a	n/a	1
73.685	0.533326155	KNOB	lure	n/a	n/a	n/a	1
74.219	0.649993146	POLISH	short	n/a	n/a	n/a	1
74.869	0.516655042	PARKWAY	lure	n/a	n/a	n/a	1
75.385	0.716662452	PINTO	lure	n/a	n/a	n/a	1
76.102	0.449987067	BALL	lure	n/a	n/a	n/a	1
76.552	0.749992935	COERCION	lure	n/a	n/a	n/a	1
77.302	0.349991756	STATUE	lure	n/a	n/a	n/a	1
77.652	0.416663802	RETRIAL	lure	n/a	n/a	n/a	1
78.068	0.449992495	SAILBOAT	lure	n/a	n/a	n/a	1
78.518	0.416661692	RAY	lure	n/a	n/a	n/a	1
78.935	0.449995404	LUNCHEON	lure	n/a	n/a	n/a	1
79.385	0.39999556	COMMOTION	lure	n/a	n/a	n/a	1
79.785	0.699990991	RETROSPECT	lure	n/a	n/a	n/a	1
80.485	0.636248829	HANDBOOK	lure	n/a	n/a	n/a	1
81.121	0.347070746	CELERY	lure	n/a	n/a	n/a	1
81.468	0.63332685	CRICKET	lure	n/a	n/a	n/a	1
82.102	0.566654961	BOXWOOD	lure	n/a	n/a	n/a	1
82.668	1.016656499	PINEAPPLE	fruit	674	2	2	1
83.685	0.386624933	GUARDIAN	lure	n/a	n/a	n/a	1
84.072	0.396691942	APARTMENT	lure	n/a	n/a	n/a	1
84.468	0.416664697	MIDGET	lure	n/a	n/a	n/a	1
84.885	0.733323861	LONGBOAT	lure	n/a	n/a	n/a	1
85.618	0.749987333	SIMPLICITY	lure	n/a	n/a	n/a	1
86.368	0.666698639	WINDSHIELD	lure	n/a	n/a	n/a	1
87.035	0.716619601	SEABED	lure	n/a	n/a	n/a	1
87.752	0.483321093	PLUMAGE	lure	n/a	n/a	n/a	1
88.235	0.499994205	RIFLEMEN	lure	n/a	n/a	n/a	1
88.735	0.483370444	COLLATERAL	lure	n/a	n/a	n/a	1
89.218	0.683284796	ESTEEM	lure	n/a	n/a	n/a	1
89.902	0.733321007	NAIVETY	lure	n/a	n/a	n/a	1
90.635	0.483323827	MANIAC	lure	n/a	n/a	n/a	1
91.118	0.649999994	BASKET	short	n/a	n/a	n/a	1
91.768	0.683317876	AREA	lure	n/a	n/a	n/a	1
92.452	0.66810348	LION	lure	n/a	n/a	n/a	1
93.12	0.565213167	INDIGENCE	lure	n/a	n/a	n/a	1
93.685	0.399994008	BROTHER	lure	n/a	n/a	n/a	1
94.085	0.616657772	FOOTER	lure	n/a	n/a	n/a	1
94.702	0.449998816	ETIQUETTE	lure	n/a	n/a	n/a	1
95.152	0.349991503	DILATION	lure	n/a	n/a	n/a	1
95.502	0.60248038	SCREE	lure	n/a	n/a	n/a	1
96.104	0.564170404	HEADSTONE	lure	n/a	n/a	n/a	1
96.668	0.699992735	DEER	lure	n/a	n/a	n/a	1
97.368	0.449990203	VALIDITY	lure	n/a	n/a	n/a	1
97.818	0.749995731	RAPPORT	lure	n/a	n/a	n/a	1
98.568	0.449990701	INCUBATION	lure	n/a	n/a	n/a	1
99.018	0.349996836	VOLCANO	lure	n/a	n/a	n/a	1
99.368	1.016649422	NECTARINE	fruit	646	2	2	1
100.385	0.349995733	ORDEAL	lure	n/a	n/a	n/a	1
100.735	0.433332019	ORGANIZER	lure	n/a	n/a	n/a	1
101.168	0.699988331	INSECURITY	lure	n/a	n/a	n/a	1
101.868	0.366708145	AIRFLOW	lure	n/a	n/a	n/a	1
102.235	0.516669336	FREEHOLDER	lure	n/a	n/a	n/a	1
102.752	0.433267524	HELM	lure	n/a	n/a	n/a	1
103.185	0.466660935	RATIO	lure	n/a	n/a	n/a	1
103.651	0.349996296	BOUNTY	lure	n/a	n/a	n/a	1
104.001	0.649990462	FIGUREHEAD	lure	n/a	n/a	n/a	1
104.651	0.418608784	FIREMAN	lure	n/a	n/a	n/a	1
105.07	0.481378342	PREFERENCE	lure	n/a	n/a	n/a	1
105.551	0.550042372	OUTRAGE	lure	n/a	n/a	n/a	1
106.101	0.649942809	REFLECTION	lure	n/a	n/a	n/a	1
106.751	0.583327729	CADDY	lure	n/a	n/a	n/a	1
107.335	0.566717513	INSULATION	lure	n/a	n/a	n/a	1
107.901	2.016579854	FIDDLE	long	n/a	n/a	n/a	1
109.918	0.416664718	IMPAIRMENT	lure	n/a	n/a	n/a	1
110.335	0.683318689	NONFICTION	lure	n/a	n/a	n/a	1
111.018	0.516662245	BROCCOLI	lure	n/a	n/a	n/a	1
111.535	0.483324066	FRUGALITY	lure	n/a	n/a	n/a	1
112.018	0.499993711	ASCENT	lure	n/a	n/a	n/a	1
112.518	0.683329354	NECESSITY	lure	n/a	n/a	n/a	1
113.201	0.649988943	TACTIC	lure	n/a	n/a	n/a	1
113.851	0.449993205	ICEBOX	lure	n/a	n/a	n/a	1
114.301	0.750052284	CORVETTE	lure	n/a	n/a	n/a	1
115.051	0.499933306	INTAKE	lure	n/a	n/a	n/a	1
115.551	0.349992123	DUCT	lure	n/a	n/a	n/a	1
115.901	2.016639697	DIAL	long	n/a	n/a	n/a	1
117.918	0.649989127	REPLICA	lure	n/a	n/a	n/a	1
118.568	0.633325266	AURA	lure	n/a	n/a	n/a	1
119.201	0.683324074	VOLLEYBALL	lure	n/a	n/a	n/a	1
119.885	0.383331287	MICROMETER	lure	n/a	n/a	n/a	1
120.268	0.533326118	BEE	lure	n/a	n/a	n/a	1
120.801	0.583327508	PLUNGER	lure	n/a	n/a	n/a	1
121.385	0.416719201	APPOINTEE	lure	n/a	n/a	n/a	1
121.801	0.39993126	RULEBOOK	lure	n/a	n/a	n/a	1
122.201	0.733321265	SOMEONE	lure	n/a	n/a	n/a	1
122.935	0.733325626	PEELER	lure	n/a	n/a	n/a	1
123.668	0.633382398	CLOVERLEAF	lure	n/a	n/a	n/a	1
124.301	0.616601099	COLLAR	short	n/a	n/a	n/a	1
124.918	0.766660806	OUTFLOW	lure	n/a	n/a	n/a	1
125.685	0.599988271	ADOPTION	lure	n/a	n/a	n/a	1
126.284	0.566661042	ANYONE	lure	n/a	n/a	n/a	1
126.851	0.633380514	ILLUSION	lure	n/a	n/a	n/a	1
127.485	0.583357054	ENDEARMENT	lure	n/a	n/a	n/a	1
128.068	0.633235121	TIMIDITY	lure	n/a	n/a	n/a	1
128.701	0.699989927	NOON	lure	n/a	n/a	n/a	1
129.401	0.616660445	SANCTUARY	lure	n/a	n/a	n/a	1
130.018	0.569016929	AUTOMOBILE	lure	n/a	n/a	n/a	1
130.587	0.680964182	SOCIALITY	lure	n/a	n/a	n/a	1
131.268	0.716660071	EFFORT	lure	n/a	n/a	n/a	1
131.984	0.616655722	MASCARA	lure	n/a	n/a	n/a	1
132.601	0.616656466	IODINE	short	n/a	n/a	n/a	1
133.218	0.46666697	IMMUNITY	lure	n/a	n/a	n/a	1
133.684	0.516656399	DOSAGE	lure	n/a	n/a	n/a	1
134.201	0.699987015	PELLET	lure	n/a	n/a	n/a	1
134.901	0.383328715	BRIDESMAID	lure	n/a	n/a	n/a	1
135.284	0.59999757	TEAR	lure	n/a	n/a	n/a	1
135.884	0.721092764	GRADIENT	lure	n/a	n/a	n/a	1
136.605	0.378886622	EDDY	lure	n/a	n/a	n/a	1
136.984	0.433327147	STILETTO	lure	n/a	n/a	n/a	1
137.418	0.766662405	DISPENSARY	lure	n/a	n/a	n/a	1
138.184	0.566658917	BEAKER	lure	n/a	n/a	n/a	1
138.751	0.702877514	CONFIDANT	lure	n/a	n/a	n/a	1
139.454	0.713767304	TRADESMAN	lure	n/a	n/a	n/a	1
140.168	0.583322066	INCIVILITY	lure	n/a	n/a	n/a	1
140.751	2.016640413	LUMBER	long	n/a	n/a	n/a	1
142.768	0.533327036	APPLICANT	lure	n/a	n/a	n/a	1
143.301	0.666659055	HONESTY	lure	n/a	n/a	n/a	1
143.968	0.683320124	PERIPHERY	lure	n/a	n/a	n/a	1
144.651	0.383333509	TENT	lure	n/a	n/a	n/a	1
145.034	0.599991215	DEFENCE	lure	n/a	n/a	n/a	1
145.634	0.349990475	AUDACITY	lure	n/a	n/a	n/a	1
145.984	0.699994691	SPECIALIST	lure	n/a	n/a	n/a	1
146.684	0.566659378	ZEPPELIN	lure	n/a	n/a	n/a	1
147.251	0.466657071	FLUENCY	lure	n/a	n/a	n/a	1
147.718	0.733328868	TRACER	lure	n/a	n/a	n/a	1
148.451	0.616655755	TANTRUM	lure	n/a	n/a	n/a	1
149.068	1.016650484	PINEAPPLE	fruit	499	2	2	1
150.084	0.616656952	AUTOCRACY	lure	n/a	n/a	n/a	1
150.701	0.699991156	SONOGRAM	lure	n/a	n/a	n/a	1
151.401	0.549995619	PISTACHIO	lure	n/a	n/a	n/a	1
151.951	0.549992914	ELIXIR	lure	n/a	n/a	n/a	1
152.501	0.36665866	CHURCH	lure	n/a	n/a	n/a	1
152.867	0.766659244	WALLFLOWER	lure	n/a	n/a	n/a	1
153.634	0.316660684	STRUDEL	lure	n/a	n/a	n/a	1
153.951	0.483327999	PATH	lure	n/a	n/a	n/a	1
154.434	0.699990686	HANGER	lure	n/a	n/a	n/a	1
155.134	0.416659686	RIBCAGE	lure	n/a	n/a	n/a	1
155.551	0.587856973	MERIDIAN	lure	n/a	n/a	n/a	1
156.139	0.612131002	RESIN	lure	n/a	n/a	n/a	1
156.751	0.500030658	MEALTIME	lure	n/a	n/a	n/a	1
157.251	0.616616517	DOME	short	n/a	n/a	n/a	1
157.867	0.449994991	HAYFORK	lure	n/a	n/a	n/a	1
158.317	0.60004958	CORDUROY	lure	n/a	n/a	n/a	1
158.917	0.635534201	NOOK	lure	n/a	n/a	n/a	1
159.553	0.697721001	CONSUMER	lure	n/a	n/a	n/a	1
160.251	0.58333207	FIDDLER	lure	n/a	n/a	n/a	1
160.834	0.666657168	PIKE	lure	n/a	n/a	n/a	1
161.501	0.483323124	BOOKBINDER	lure	n/a	n/a	n/a	1
161.984	0.500034055	SPEEDUP	lure	n/a	n/a	n/a	1
162.484	0.583324763	CRUCIBLE	lure	n/a	n/a	n/a	1
163.067	0.516617437	ADVERTISER	lure	n/a	n/a	n/a	1
163.584	0.399998545	EUPHEMISM	lure	n/a	n/a	n/a	1
163.984	0.733322565	CHAMPAIGN	lure	n/a	n/a	n/a	1
164.717	0.433325379	LEADER	lure	n/a	n/a	n/a	1
165.151	0.466661868	CONCUSSION	lure	n/a	n/a	n/a	1
165.617	2.01664303	MAST	long	n/a	n/a	n/a	1
167.634	0.36666147	ATTIRE	lure	n/a	n/a	n/a	1
168.001	0.449990735	CROCODILE	lure	n/a	n/a	n/a	1
168.451	0.583323782	GLACIER	lure	n/a	n/a	n/a	1
169.034	0.749995285	BIZ	lure	n/a	n/a	n/a	1
169.784	0.69998811	CROSSROAD	lure	n/a	n/a	n/a	1
170.484	0.549991412	TELEGRAM	lure	n/a	n/a	n/a	1
171.034	0.599992554	IMPULSE	lure	n/a	n/a	n/a	1
171.634	0.516657978	EPILEPSY	lure	n/a	n/a	n/a	1
172.151	0.583328198	CONIFER	lure	n/a	n/a	n/a	1
172.734	0.666659581	HUNTER	lure	n/a	n/a	n/a	1
173.401	0.533322551	TRIVIA	lure	n/a	n/a	n/a	1
173.934	2.016640757	DISTRICT	long	n/a	n/a	n/a	1
175.95	0.44999142	PROVIDER	lure	n/a	n/a	n/a	1
176.4	0.40004662	GRUB	lure	n/a	n/a	n/a	1
176.801	0.649942077	KIDNAPPER	lure	n/a	n/a	n/a	1
177.45	0.333327915	LADDER	lure	n/a	n/a	n/a	1
177.784	0.59999165	COSTUMER	lure	n/a	n/a	n/a	1
178.384	0.633323239	DIVA	lure	n/a	n/a	n/a	1
179.017	0.549993542	HOMETOWN	lure	n/a	n/a	n/a	1
179.567	0.599990165	UNDERWORLD	lure	n/a	n/a	n/a	1
180.167	0.483365953	GUNPOINT	lure	n/a	n/a	n/a	1
180.65	0.649953694	SUNLAMP	lure	n/a	n/a	n/a	1
181.3	0.549997336	KAYAK	lure	n/a	n/a	n/a	1
181.85	1.016649845	ORANGE	fruit	876	2	2	1
182.867	0.566654508	DETERGENT	lure	n/a	n/a	n/a	1
183.434	0.433332992	En/aICHMENT	lure	n/a	n/a	n/a	1
183.867	0.46671596	DENSITY	lure	n/a	n/a	n/a	1
184.334	0.586378654	DETERRENCE	lure	n/a	n/a	n/a	1
184.92	0.646922184	CARDIGAN	lure	n/a	n/a	n/a	1
185.567	0.449953222	CORNFIELD	lure	n/a	n/a	n/a	1
186.017	0.449992022	UPRISING	lure	n/a	n/a	n/a	1
186.467	0.466661844	TRACTION	lure	n/a	n/a	n/a	1
186.934	0.616696079	TROUPE	lure	n/a	n/a	n/a	1
187.55	0.633287896	SHIPPER	lure	n/a	n/a	n/a	1
188.184	0.6666955	ASCENSION	lure	n/a	n/a	n/a	1
188.85	0.566617779	FREEDMAN	lure	n/a	n/a	n/a	1
189.417	0.616661466	SENIORITY	lure	n/a	n/a	n/a	1
190.034	0.616657196	STEALER	lure	n/a	n/a	n/a	1
190.65	0.6166561	TIRE	short	n/a	n/a	n/a	1
191.267	0.399996242	PATCHWORK	lure	n/a	n/a	n/a	1
191.667	0.433331924	WARFARE	lure	n/a	n/a	n/a	1
192.1	0.599987049	STATIONERY	lure	n/a	n/a	n/a	1
192.7	0.649991209	JEWELER	lure	n/a	n/a	n/a	1
193.35	0.549997155	SAGEBRUSH	lure	n/a	n/a	n/a	1
193.9	0.59998533	FLYER	lure	n/a	n/a	n/a	1
194.5	0.333335734	FLAGSTONE	lure	n/a	n/a	n/a	1
194.834	0.733321121	VISITOR	lure	n/a	n/a	n/a	1
195.567	0.749987243	CRUSHER	lure	n/a	n/a	n/a	1
196.317	0.71669971	WEAVER	lure	n/a	n/a	n/a	1
197.034	0.416622749	PACKAGE	lure	n/a	n/a	n/a	1
197.45	0.483321692	INEQUALITY	lure	n/a	n/a	n/a	1
197.934	0.533329515	CONDENSER	lure	n/a	n/a	n/a	1
198.467	0.749985472	HACKSAW	lure	n/a	n/a	n/a	1
199.217	0.616664966	CHALK	short	n/a	n/a	n/a	1
199.834	0.567343477	JAILER	lure	n/a	n/a	n/a	1
200.401	0.549301553	CROSSWORD	lure	n/a	n/a	n/a	1
200.95	0.683328153	ROMPER	lure	n/a	n/a	n/a	1
201.633	0.383328367	SECLUSION	lure	n/a	n/a	n/a	1
202.017	0.433365622	PERMEATION	lure	n/a	n/a	n/a	1
202.45	0.616616147	CASEWORK	lure	n/a	n/a	n/a	1
203.067	0.469399649	POTHOLE	lure	n/a	n/a	n/a	1
203.536	0.563920891	ROTISSERIE	lure	n/a	n/a	n/a	1
204.1	0.716657532	TOOLMAKER	lure	n/a	n/a	n/a	1
204.817	0.416660527	MAILBOX	lure	n/a	n/a	n/a	1
205.233	0.36670072	EXCEPTION	lure	n/a	n/a	n/a	1
205.6	0.516621646	TENDENCY	lure	n/a	n/a	n/a	1
206.117	0.400055044	MEMORY	lure	n/a	n/a	n/a	1
206.517	0.383312074	HUMPBACK	lure	n/a	n/a	n/a	1
206.9	2.01659914	PLANET	long	n/a	n/a	n/a	1
208.917	0.633323321	PURSUANCE	lure	n/a	n/a	n/a	1
209.55	0.466660852	PERCENT	lure	n/a	n/a	n/a	1
210.017	0.483321382	INHIBITOR	lure	n/a	n/a	n/a	1
210.5	0.733328651	REGENCY	lure	n/a	n/a	n/a	1
211.233	0.683321855	SKETCHPAD	lure	n/a	n/a	n/a	1
211.917	0.520519835	ATTRIBUTE	lure	n/a	n/a	n/a	1
212.437	0.429466268	FREEBIE	lure	n/a	n/a	n/a	1
212.867	0.449997067	SCORECARD	lure	n/a	n/a	n/a	1
213.317	0.449990548	TENDERFOOT	lure	n/a	n/a	n/a	1
213.767	0.750000944	TEABAG	lure	n/a	n/a	n/a	1
214.517	0.716651665	HORIZON	lure	n/a	n/a	n/a	1
215.233	0.616655981	BATON	short	n/a	n/a	n/a	1
215.85	0.500034062	ANIMALISM	lure	n/a	n/a	n/a	1
216.35	0.749945718	PROTEGE	lure	n/a	n/a	n/a	1
217.1	0.73332495	RATTLETRAP	lure	n/a	n/a	n/a	1
217.833	0.366662054	TOLERANCE	lure	n/a	n/a	n/a	1
218.2	0.516661162	PROVERB	lure	n/a	n/a	n/a	1
218.717	0.73332362	INGENUITY	lure	n/a	n/a	n/a	1
219.45	0.516659246	BRAVADO	lure	n/a	n/a	n/a	1
219.967	0.533328915	HABITATION	lure	n/a	n/a	n/a	1
220.5	0.633320096	SCULPTOR	lure	n/a	n/a	n/a	1
221.133	0.699990951	CHARITY	lure	n/a	n/a	n/a	1
221.833	0.483327674	HOOCH	lure	n/a	n/a	n/a	1
222.317	0.43333184	TONER	lure	n/a	n/a	n/a	1
222.75	0.583320513	GATEHOUSE	lure	n/a	n/a	n/a	1
223.333	0.633324848	EXPO	lure	n/a	n/a	n/a	1
223.967	0.483328375	OPIATE	lure	n/a	n/a	n/a	1
224.45	0.449996892	MANSION	lure	n/a	n/a	n/a	1
224.9	0.749988449	DEPENDENCY	lure	n/a	n/a	n/a	1
225.65	0.433323124	PUCK	lure	n/a	n/a	n/a	1
226.083	0.499997721	DEVOTION	lure	n/a	n/a	n/a	1
226.583	n/a	CONFIDANTE	lure	n/a	n/a	n/a	1
238.016	0.633322905	SAINT	lure	n/a	n/a	n/a	1
238.65	0.616656718	LOUGH	lure	n/a	n/a	n/a	1
239.266	0.399995004	CHOLERA	lure	n/a	n/a	n/a	1
239.666	0.333332195	INVENTION	lure	n/a	n/a	n/a	1
240	0.466660381	TARIFF	lure	n/a	n/a	n/a	1
240.466	0.385117733	TRAGEDY	lure	n/a	n/a	n/a	1
240.851	0.764866083	THROWBACK	lure	n/a	n/a	n/a	1
241.616	0.499995966	OUTAGE	lure	n/a	n/a	n/a	1
242.116	0.616655946	IODINE	short	n/a	n/a	n/a	1
242.733	0.766656694	GROUNDHOG	lure	n/a	n/a	n/a	1
243.5	0.566659774	FIREBALL	lure	n/a	n/a	n/a	1
244.066	0.683326296	OPENER	lure	n/a	n/a	n/a	1
244.75	0.633318482	DROPLET	lure	n/a	n/a	n/a	1
245.383	0.466660528	TRANCE	lure	n/a	n/a	n/a	1
245.85	0.466663335	BOAR	lure	n/a	n/a	n/a	1
246.316	0.449997048	MILLIGRAM	lure	n/a	n/a	n/a	1
246.766	0.41703299	MATURATION	lure	n/a	n/a	n/a	1
247.183	0.566282749	TROOPER	lure	n/a	n/a	n/a	1
247.75	0.36666615	PROMOTER	lure	n/a	n/a	n/a	1
248.116	0.716714831	AHOY	lure	n/a	n/a	n/a	1
248.833	0.466598038	OFFENDER	lure	n/a	n/a	n/a	1
249.3	0.400034799	TURNAROUND	lure	n/a	n/a	n/a	1
249.7	0.533286777	HEARTBREAK	lure	n/a	n/a	n/a	1
250.233	0.449994291	INHALATION	lure	n/a	n/a	n/a	1
250.683	1.016652965	LEMON	fruit	540	2	2	1
251.699	0.366661601	APOSTLE	lure	n/a	n/a	n/a	1
252.066	0.449995789	MUSKRAT	lure	n/a	n/a	n/a	1
252.516	0.65077895	DISORDER	lure	n/a	n/a	n/a	1
253.167	0.749239728	NAVIGATION	lure	n/a	n/a	n/a	1
253.916	0.400016091	MAZE	lure	n/a	n/a	n/a	1
254.316	0.699932736	BRAKEMAN	lure	n/a	n/a	n/a	1
255.016	0.333326235	NATION	lure	n/a	n/a	n/a	1
255.349	0.716657576	CROCKERY	lure	n/a	n/a	n/a	1
256.066	0.649990667	IMMEDIACY	lure	n/a	n/a	n/a	1
256.716	0.399994023	CORN	lure	n/a	n/a	n/a	1
257.116	0.533325513	WICKERWORK	lure	n/a	n/a	n/a	1
257.649	0.633323749	MOGUL	lure	n/a	n/a	n/a	1
258.283	0.649997494	PROTEST	lure	n/a	n/a	n/a	1
258.933	2.016631366	DISTRICT	long	n/a	n/a	n/a	1
260.949	0.633328314	GIBLET	lure	n/a	n/a	n/a	1
261.583	0.466700608	MAGNUM	lure	n/a	n/a	n/a	1
262.049	0.733282133	TAILWIND	lure	n/a	n/a	n/a	1
262.783	0.533326727	FISHMONGER	lure	n/a	n/a	n/a	1
263.316	0.433325184	STOPWATCH	lure	n/a	n/a	n/a	1
263.749	0.449998842	ORDINATE	lure	n/a	n/a	n/a	1
264.199	0.499991297	NEPHEW	lure	n/a	n/a	n/a	1
264.699	0.449995464	MOUSETRAP	lure	n/a	n/a	n/a	1
265.149	0.416656437	KITTY	lure	n/a	n/a	n/a	1
265.566	0.433328228	ACCESSORY	lure	n/a	n/a	n/a	1
265.999	0.483329227	COB	lure	n/a	n/a	n/a	1
266.483	0.483328297	STICKER	lure	n/a	n/a	n/a	1
266.966	2.01663905	DIAL	long	n/a	n/a	n/a	1
268.983	0.433323414	ADRENALIN	lure	n/a	n/a	n/a	1
269.416	0.766659358	COWARDICE	lure	n/a	n/a	n/a	1
270.183	0.383325428	PANTHER	lure	n/a	n/a	n/a	1
270.566	0.583328357	SCEPTICISM	lure	n/a	n/a	n/a	1
271.149	0.649993916	KIDDER	lure	n/a	n/a	n/a	1
271.799	0.599987351	PLAYPEN	lure	n/a	n/a	n/a	1
272.399	0.383329267	LINEUP	lure	n/a	n/a	n/a	1
272.783	0.716657727	RECOURSE	lure	n/a	n/a	n/a	1
273.499	0.766656852	MONOXIDE	lure	n/a	n/a	n/a	1
274.266	0.733322626	HOG	lure	n/a	n/a	n/a	1
274.999	0.749990406	BIOGRAPHY	lure	n/a	n/a	n/a	1
275.749	0.616657177	TIRE	short	n/a	n/a	n/a	1
276.366	0.333327776	STALKER	lure	n/a	n/a	n/a	1
276.699	0.316660706	TOPSOIL	lure	n/a	n/a	n/a	1
277.016	0.716663752	DEDUCTION	lure	n/a	n/a	n/a	1
277.732	0.520394345	REVIEWER	lure	n/a	n/a	n/a	1
278.253	0.562918355	PAYMASTER	lure	n/a	n/a	n/a	1
278.816	0.366665638	COMPUTER	lure	n/a	n/a	n/a	1
279.182	0.349995165	OPERATOR	lure	n/a	n/a	n/a	1
279.532	0.716657435	AIRLOCK	lure	n/a	n/a	n/a	1
280.249	0.549988226	CABBY	lure	n/a	n/a	n/a	1
280.799	0.502119056	WINGER	lure	n/a	n/a	n/a	1
281.301	0.414542828	ADVICE	lure	n/a	n/a	n/a	1
281.716	0.33332301	STOOL	lure	n/a	n/a	n/a	1
282.049	0.433327143	MOMENT	lure	n/a	n/a	n/a	1
282.482	0.733321931	BRACELET	lure	n/a	n/a	n/a	1
283.216	0.499999352	SILHOUETTE	lure	n/a	n/a	n/a	1
283.716	0.766654514	SOLILOQUY	lure	n/a	n/a	n/a	1
284.482	0.616655832	DOME	short	n/a	n/a	n/a	1
285.099	0.733324467	FLAMINGO	lure	n/a	n/a	n/a	1
285.832	0.566656893	IMMODESTY	lure	n/a	n/a	n/a	1
286.399	0.433328955	BIDDER	lure	n/a	n/a	n/a	1
286.832	0.516662294	DAREDEVIL	lure	n/a	n/a	n/a	1
287.349	0.449990474	BUGGY	lure	n/a	n/a	n/a	1
287.799	0.46669997	FESTIVITY	lure	n/a	n/a	n/a	1
288.266	0.449954202	ADMIRAL	lure	n/a	n/a	n/a	1
288.716	0.449999476	UMPIRE	lure	n/a	n/a	n/a	1
289.166	0.766654243	TROTTER	lure	n/a	n/a	n/a	1
289.932	0.699988823	PROBATION	lure	n/a	n/a	n/a	1
290.632	0.549994209	HAILSTONE	lure	n/a	n/a	n/a	1
291.182	0.616659966	CAFFEINE	lure	n/a	n/a	n/a	1
291.799	0.566659732	CONDOR	lure	n/a	n/a	n/a	1
292.366	0.616653748	CHALK	short	n/a	n/a	n/a	1
292.982	0.633366553	OPPONENT	lure	n/a	n/a	n/a	1
293.616	0.749946492	NEUTRALISM	lure	n/a	n/a	n/a	1
294.366	0.383329283	FENCER	lure	n/a	n/a	n/a	1
294.749	0.73332254	BUOYANCY	lure	n/a	n/a	n/a	1
295.482	0.799993177	STEED	lure	n/a	n/a	n/a	1
296.282	0.420451672	FIREFLY	lure	n/a	n/a	n/a	1
296.703	0.579537233	EXPANSION	lure	n/a	n/a	n/a	1
297.282	0.433322296	YEARBOOK	lure	n/a	n/a	n/a	1
297.716	0.733322463	FOLK	lure	n/a	n/a	n/a	1
298.449	0.633324708	OVERSEER	lure	n/a	n/a	n/a	1
299.082	0.583839334	MALICE	lure	n/a	n/a	n/a	1
299.666	0.749476838	NIECE	lure	n/a	n/a	n/a	1
300.415	0.733328579	SURFER	lure	n/a	n/a	n/a	1
301.149	2.01663464	MAGNET	long	n/a	n/a	n/a	1
303.165	0.633326982	ANAGRAM	lure	n/a	n/a	n/a	1
303.799	0.7499906	VALOR	lure	n/a	n/a	n/a	1
304.549	0.566655812	DOGHOUSE	lure	n/a	n/a	n/a	1
305.115	0.599991218	GUERILLA	lure	n/a	n/a	n/a	1
305.715	0.349997321	BETRAYAL	lure	n/a	n/a	n/a	1
306.065	0.316661669	IMMUNOLOGY	lure	n/a	n/a	n/a	1
306.382	0.749991969	BATTERY	lure	n/a	n/a	n/a	1
307.132	0.533329161	CAPRICE	lure	n/a	n/a	n/a	1
307.665	0.416660093	IDOL	lure	n/a	n/a	n/a	1
308.082	0.766654868	BREAKER	lure	n/a	n/a	n/a	1
308.849	0.449993864	MISCOUNT	lure	n/a	n/a	n/a	1
309.299	1.018685135	GOOSEBERRY	fruit	940	2	2	1
310.317	0.531290185	CREATIVITY	lure	n/a	n/a	n/a	1
310.849	0.516663423	NAVIGATOR	lure	n/a	n/a	n/a	1
311.365	0.733323793	DISSIDENCE	lure	n/a	n/a	n/a	1
312.099	0.699989436	RIPTIDE	lure	n/a	n/a	n/a	1
312.799	0.416663223	CHEMISE	lure	n/a	n/a	n/a	1
313.215	0.716655237	PETAL	lure	n/a	n/a	n/a	1
313.932	0.499993234	PRODUCT	lure	n/a	n/a	n/a	1
314.432	0.333327561	BOUNDARY	lure	n/a	n/a	n/a	1
314.765	0.516657425	RIFT	lure	n/a	n/a	n/a	1
315.282	0.466665689	KETCHUP	lure	n/a	n/a	n/a	1
315.749	0.666656127	CENTERLINE	lure	n/a	n/a	n/a	1
316.415	0.569354401	WINDBAG	lure	n/a	n/a	n/a	1
316.985	0.530631707	PORTRAIT	lure	n/a	n/a	n/a	1
317.515	0.616658232	POLISH	short	n/a	n/a	n/a	1
318.132	0.533322013	ENTIRETY	lure	n/a	n/a	n/a	1
318.665	0.716662991	SHUTDOWN	lure	n/a	n/a	n/a	1
319.382	0.566657504	JAMBOREE	lure	n/a	n/a	n/a	1
319.949	0.500042607	EJECTION	lure	n/a	n/a	n/a	1
320.449	0.566608659	MEDIUM	lure	n/a	n/a	n/a	1
321.015	0.383329355	NEWSROOM	lure	n/a	n/a	n/a	1
321.399	0.749991419	SOMBRERO	lure	n/a	n/a	n/a	1
322.149	0.699988771	SYRUP	lure	n/a	n/a	n/a	1
322.849	0.683319779	QUART	lure	n/a	n/a	n/a	1
323.532	0.733324084	TENANCY	lure	n/a	n/a	n/a	1
324.265	0.449999471	ANNOTATION	lure	n/a	n/a	n/a	1
324.715	0.41665859	EXPECTANCY	lure	n/a	n/a	n/a	1
325.132	0.333328929	GLEANER	lure	n/a	n/a	n/a	1
325.465	2.016640118	LUMBER	long	n/a	n/a	n/a	1
327.482	0.616717016	SHORELINE	lure	n/a	n/a	n/a	1
328.099	0.516597265	RINK	lure	n/a	n/a	n/a	1
328.615	0.733324787	BANDAGE	lure	n/a	n/a	n/a	1
329.348	0.649991045	RIBBING	lure	n/a	n/a	n/a	1
329.998	0.616663871	THEOLOGIAN	lure	n/a	n/a	n/a	1
330.615	0.699987097	DOGFIGHT	lure	n/a	n/a	n/a	1
331.315	0.44999021	MISSION	lure	n/a	n/a	n/a	1
331.765	0.316665495	FOXGLOVE	lure	n/a	n/a	n/a	1
332.082	0.516662028	NECKLINE	lure	n/a	n/a	n/a	1
332.598	0.649992311	CZAR	lure	n/a	n/a	n/a	1
333.248	0.683321538	SESAME	lure	n/a	n/a	n/a	1
333.932	0.616654983	ROPE	short	n/a	n/a	n/a	1
334.548	0.333330769	WOAD	lure	n/a	n/a	n/a	1
334.882	0.333332167	CLOSEUP	lure	n/a	n/a	n/a	1
335.215	0.483320938	PALACE	lure	n/a	n/a	n/a	1
335.698	0.366666075	PERCENTAGE	lure	n/a	n/a	n/a	1
336.065	0.533325755	BLACKJACK	lure	n/a	n/a	n/a	1
336.598	0.483323921	HELMET	lure	n/a	n/a	n/a	1
337.082	0.683327476	PONE	lure	n/a	n/a	n/a	1
337.765	0.583323116	FOLLY	lure	n/a	n/a	n/a	1
338.348	0.533328052	INDENT	lure	n/a	n/a	n/a	1
338.882	0.533370791	CAMEO	lure	n/a	n/a	n/a	1
339.415	0.638025379	TURBULENCE	lure	n/a	n/a	n/a	1
340.053	0.328624048	GOSPEL	lure	n/a	n/a	n/a	1
340.382	0.68328476	ROAD	lure	n/a	n/a	n/a	1
341.065	0.566657734	HOUSE	lure	n/a	n/a	n/a	1
341.632	0.349991334	MEAD	lure	n/a	n/a	n/a	1
341.982	1.020778137	BERRY	fruit	769	2	2	1
343.002	0.379210399	MAILMAN	lure	n/a	n/a	n/a	1
343.382	0.38332375	PUPPY	lure	n/a	n/a	n/a	1
343.765	0.749990917	FROG	lure	n/a	n/a	n/a	1
344.515	0.566662458	ADOBE	lure	n/a	n/a	n/a	1
345.082	0.749984755	MALT	lure	n/a	n/a	n/a	1
345.832	0.333328555	DISPERSAL	lure	n/a	n/a	n/a	1
346.165	0.63333011	CABIN	lure	n/a	n/a	n/a	1
346.798	0.416710425	WINDER	lure	n/a	n/a	n/a	1
347.215	0.466606858	BATMAN	lure	n/a	n/a	n/a	1
347.682	0.383327615	RACQUET	lure	n/a	n/a	n/a	1
348.065	0.683327429	RADAR	lure	n/a	n/a	n/a	1
348.748	0.533322357	HEATER	lure	n/a	n/a	n/a	1
349.281	0.450054137	LINGUIST	lure	n/a	n/a	n/a	1
349.732	0.483270427	HYSTERIA	lure	n/a	n/a	n/a	1
350.215	1.016650159	BLACKBERRY	fruit	600	2	2	1
351.231	0.416661957	SUBSYSTEM	lure	n/a	n/a	n/a	1
351.648	0.385027209	MOUSE	lure	n/a	n/a	n/a	1
352.033	0.66495914	GIZZARD	lure	n/a	n/a	n/a	1
352.698	0.666653588	COFFEEPOT	lure	n/a	n/a	n/a	1
353.365	0.666661006	CAR	lure	n/a	n/a	n/a	1
354.031	0.733320627	CREATOR	lure	n/a	n/a	n/a	1
354.765	0.633368904	HANDBALL	lure	n/a	n/a	n/a	1
355.398	0.749949023	PLAYWRIGHT	lure	n/a	n/a	n/a	1
356.148	0.666654753	RUM	lure	n/a	n/a	n/a	1
356.815	0.583326705	RAMPAGE	lure	n/a	n/a	n/a	1
357.398	0.516662026	LEOTARD	lure	n/a	n/a	n/a	1
357.915	0.483329648	INMATE	lure	n/a	n/a	n/a	1
358.398	2.016637413	PLANET	long	n/a	n/a	n/a	1
360.415	0.599988607	DISHWASHER	lure	n/a	n/a	n/a	1
361.015	0.434508966	SHERBET	lure	n/a	n/a	n/a	1
361.449	0.415484933	FLUKE	lure	246	2	n/a	0
361.865	0.533319857	DOVE	lure	n/a	n/a	n/a	1
362.398	0.466660873	SLAW	lure	n/a	n/a	n/a	1
362.865	0.433329809	TURNTABLE	lure	n/a	n/a	n/a	1
363.298	0.699991358	SUITE	lure	n/a	n/a	n/a	1
363.998	0.499994365	SUNDAE	lure	n/a	n/a	n/a	1
364.498	0.449992576	SPATIALITY	lure	n/a	n/a	n/a	1
364.948	0.69998709	LAYOFF	lure	n/a	n/a	n/a	1
365.648	0.499998033	BARBARISM	lure	n/a	n/a	n/a	1
366.148	0.616659901	GRENADE	lure	n/a	n/a	n/a	1
366.765	2.016634736	FIDDLE	long	n/a	n/a	n/a	1
368.781	0.46666215	VISCOSITY	lure	n/a	n/a	n/a	1
369.248	0.583326268	HOOD	lure	n/a	n/a	n/a	1
369.831	0.549992451	HIGHSCHOOL	lure	n/a	n/a	n/a	1
370.381	0.683323829	SHORTBREAD	lure	n/a	n/a	n/a	1
371.065	0.433329544	FIANCE	lure	n/a	n/a	n/a	1
371.498	0.616657129	BAZAAR	lure	n/a	n/a	n/a	1
372.115	0.583325172	BEACHHEAD	lure	n/a	n/a	n/a	1
372.698	0.733323846	QUANTITY	lure	n/a	n/a	n/a	1
373.431	0.649988166	FIXATION	lure	n/a	n/a	n/a	1
374.081	0.483329297	COURTHOUSE	lure	n/a	n/a	n/a	1
374.564	0.316663394	MAIZE	lure	n/a	n/a	n/a	1
374.881	2.049971613	HILL	long	n/a	n/a	n/a	1
376.931	0.449991417	DISREPAIR	lure	n/a	n/a	n/a	1
377.381	0.383330155	CLEMENCY	lure	n/a	n/a	n/a	1
377.764	0.399997783	ANNEX	lure	n/a	n/a	n/a	1
378.164	0.383322409	TELEPATHY	lure	n/a	n/a	n/a	1
378.548	0.31666197	HOORAY	lure	n/a	n/a	n/a	1
378.864	0.716657669	INVASION	lure	n/a	n/a	n/a	1
379.581	0.49999642	PATELLA	lure	n/a	n/a	n/a	1
380.081	0.633324966	OBSESSION	lure	n/a	n/a	n/a	1
380.714	0.433324543	HEIRLOOM	lure	n/a	n/a	n/a	1
381.148	0.683326259	LIMESTONE	lure	n/a	n/a	n/a	1
381.831	0.466657718	HEMLOCK	lure	n/a	n/a	n/a	1
382.298	0.549992117	SYLLABLE	lure	n/a	n/a	n/a	1
382.848	0.616658143	BATON	short	n/a	n/a	n/a	1
383.464	0.31666645	TAILSPIN	lure	n/a	n/a	n/a	1
383.781	0.449994011	CEMETERY	lure	n/a	n/a	n/a	1
384.231	0.633321611	KICKOFF	lure	n/a	n/a	n/a	1
384.864	0.599990733	TUBA	lure	n/a	n/a	n/a	1
385.464	0.616660156	LOCKET	lure	n/a	n/a	n/a	1
386.081	0.333328838	VODKA	lure	n/a	n/a	n/a	1
386.414	0.749993972	BOTANIST	lure	n/a	n/a	n/a	1
387.164	0.667225764	HEADMASTER	lure	n/a	n/a	n/a	1
387.832	0.316093344	BANKNOTE	lure	n/a	n/a	n/a	1
388.148	0.516656539	INQUIRY	lure	n/a	n/a	n/a	1
388.664	0.416661953	GRANDCHILD	lure	n/a	n/a	n/a	1
389.081	0.566658375	CULTURE	lure	n/a	n/a	n/a	1
389.648	0.633323876	COUPE	lure	n/a	n/a	n/a	1
390.281	0.76666275	BREASTBONE	lure	n/a	n/a	n/a	1
391.048	0.733320108	CLASSROOM	lure	n/a	n/a	n/a	1
391.781	2.016637987	CURTAIN	long	n/a	n/a	n/a	1
393.798	0.649995362	ALLEGATION	lure	n/a	n/a	n/a	1
394.448	0.583322057	PROTECTION	lure	n/a	n/a	n/a	1
395.031	0.699992235	HUMILITY	lure	n/a	n/a	n/a	1
395.731	0.666655213	SOCIOLOGY	lure	n/a	n/a	n/a	1
396.398	0.583328182	COMMERCE	lure	n/a	n/a	n/a	1
396.981	0.433328537	MULE	lure	n/a	n/a	n/a	1
397.414	0.750024831	REACTIVITY	lure	n/a	n/a	n/a	1
398.164	0.333292869	VESTMENT	lure	n/a	n/a	n/a	1
398.498	0.316703334	ROMP	lure	n/a	n/a	n/a	1
398.814	0.499994673	GRAYBEARD	lure	n/a	n/a	n/a	1
399.314	0.399999103	SILICONE	lure	n/a	n/a	n/a	1
399.714	1.016643075	CRANBERRY	fruit	780	2	2	1
400.731	0.649956416	GREYBEARD	lure	n/a	n/a	n/a	1
401.381	0.616652368	RETRIEVAL	lure	n/a	n/a	n/a	1
401.997	0.519152268	STINGER	lure	n/a	n/a	n/a	1
402.517	0.380838425	LEEK	lure	n/a	n/a	n/a	1
402.897	0.46665924	PLURALISM	lure	n/a	n/a	n/a	1
403.364	0.566658599	SAXOPHONE	lure	n/a	n/a	n/a	1
403.931	0.41666586	EXPOSITION	lure	n/a	n/a	n/a	1
404.347	0.349991225	CASTER	lure	n/a	n/a	n/a	1
404.697	0.566660824	BANKRUPTCY	lure	n/a	n/a	n/a	1
405.264	0.433367503	TOGA	lure	n/a	n/a	n/a	1
405.697	0.483286404	POEM	lure	n/a	n/a	n/a	1
406.181	0.466657941	SHIRT	lure	n/a	n/a	n/a	1
406.647	0.499994231	DOUCHE	lure	n/a	n/a	n/a	1
407.147	0.583327507	DEFENDANT	lure	n/a	n/a	n/a	1
407.731	1.016690611	PEACH	fruit	852	2	2	1
408.747	0.633287715	GRID	lure	n/a	n/a	n/a	1
409.381	0.51665767	PROJECTOR	lure	n/a	n/a	n/a	1
409.897	0.53332875	BARN	lure	n/a	n/a	n/a	1
410.431	0.733431197	SUEDE	lure	n/a	n/a	n/a	1
411.164	0.366551964	IMPEDIMENT	lure	n/a	n/a	n/a	1
411.531	0.566662837	SWIMMER	lure	n/a	n/a	n/a	1
412.097	0.683322102	ECONOMY	lure	n/a	n/a	n/a	1
412.781	0.516656205	LANDHOLDER	lure	n/a	n/a	n/a	1
413.297	0.76665839	HIPPO	lure	n/a	n/a	n/a	1
414.064	0.73332129	SEAWEED	lure	n/a	n/a	n/a	1
414.797	0.34999442	SETTLER	lure	n/a	n/a	n/a	1
415.147	0.733328447	EXTENSION	lure	n/a	n/a	n/a	1
415.881	0.583322638	REJECTION	lure	n/a	n/a	n/a	1
416.464	0.649996342	MOUNTAIN	short	n/a	n/a	n/a	1
417.114	0.483321668	HEMISPHERE	lure	n/a	n/a	n/a	1
417.597	0.616661106	BROOM	lure	n/a	n/a	n/a	1
418.214	0.716653403	UPPERCUT	lure	n/a	n/a	n/a	1
418.931	0.566659655	CEREBELLUM	lure	n/a	n/a	n/a	1
419.497	0.516657694	FAILURE	lure	n/a	n/a	n/a	1
420.014	0.633329619	RUBBLE	lure	n/a	n/a	n/a	1
420.647	0.749987431	CLARINET	lure	n/a	n/a	n/a	1
421.397	0.466660078	IRONWORK	lure	n/a	n/a	n/a	1
421.864	0.483382007	LEVITATION	lure	n/a	n/a	n/a	1
422.347	0.466603054	SCOOTER	lure	n/a	n/a	n/a	1
422.814	0.433332935	INKWELL	lure	n/a	n/a	n/a	1
423.247	0.34999013	SENSATION	lure	n/a	n/a	n/a	1
423.597	0.683327371	DEFECT	lure	n/a	n/a	n/a	1
424.28	0.566655785	SUSPENSION	lure	n/a	n/a	n/a	1
424.847	2.016640772	MAST	long	n/a	n/a	n/a	1
426.864	0.716658572	PONCHO	lure	n/a	n/a	n/a	1
427.58	0.53332445	TAXONOMY	lure	n/a	n/a	n/a	1
428.114	0.5666627	CHOWDER	lure	n/a	n/a	n/a	1
428.68	0.366658202	KILLJOY	lure	n/a	n/a	n/a	1
429.047	0.499996184	LEAFLET	lure	n/a	n/a	n/a	1
429.547	0.516657351	PARAKEET	lure	n/a	n/a	n/a	1
430.064	0.316661747	POSTMAN	lure	n/a	n/a	n/a	1
430.38	0.533331385	SOLDIERY	lure	n/a	n/a	n/a	1
430.914	0.616657851	OCTAGON	lure	n/a	n/a	n/a	1
431.53	0.316657637	DENIM	lure	n/a	n/a	n/a	1
431.847	0.716659184	HIKER	lure	n/a	n/a	n/a	1
432.564	0.733324537	SYNTAX	lure	n/a	n/a	n/a	1
433.297	0.616657207	BASKET	short	n/a	n/a	n/a	1
433.914	0.483324775	WELDER	lure	n/a	n/a	n/a	1
434.397	0.449997149	ARTISAN	lure	n/a	n/a	n/a	1
434.847	0.549991448	STIRRUP	lure	n/a	n/a	n/a	1
435.397	0.566659158	BOBCAT	lure	n/a	n/a	n/a	1
435.964	0.449992932	BASIL	lure	n/a	n/a	n/a	1
436.414	0.366660819	OPINION	lure	n/a	n/a	n/a	1
436.78	0.449993573	HEADPIECE	lure	n/a	n/a	n/a	1
437.23	0.38332828	FIBER	lure	n/a	n/a	n/a	1
437.614	0.33333286	JUDGESHIP	lure	n/a	n/a	n/a	1
437.947	0.566657476	DISBELIEF	lure	n/a	n/a	n/a	1
438.514	0.449990842	ENTITY	lure	n/a	n/a	n/a	1
438.964	0.366667761	RUNOFF	lure	n/a	n/a	n/a	1
439.33	0.433325326	DEPENDENCE	lure	n/a	n/a	n/a	1
439.764	0.3999914	MEMORANDA	lure	n/a	n/a	n/a	1
440.164	0.316666188	CHALET	lure	n/a	n/a	n/a	1
440.48	0.433323647	JUROR	lure	n/a	n/a	n/a	1
440.914	0.616658522	PICNIC	lure	n/a	n/a	n/a	1
441.53	0.516662016	KNOCKER	lure	n/a	n/a	n/a	1
442.047	2.016637848	SUDS	long	n/a	n/a	n/a	1
444.064	0.649991652	ALCHEMIST	lure	n/a	n/a	n/a	1
444.714	0.399996548	PALLBEARER	lure	n/a	n/a	n/a	1
445.114	0.416656943	LOOPHOLE	lure	n/a	n/a	n/a	1
445.53	0.566661078	SCREENPLAY	lure	n/a	n/a	n/a	1
446.097	0.73332753	NEWSCAST	lure	n/a	n/a	n/a	1
446.83	0.716657156	TROOPSHIP	lure	n/a	n/a	n/a	1
447.547	0.749984998	ADULTHOOD	lure	n/a	n/a	n/a	1
448.297	0.433327232	SYMPATHY	lure	n/a	n/a	n/a	1
448.73	0.449994864	COMPOSER	lure	n/a	n/a	n/a	1
449.18	0.483327816	BONDSMAN	lure	n/a	n/a	n/a	1
449.663	0.516659119	SHIPMATE	lure	n/a	n/a	n/a	1
450.18	0.61666055	COLLAR	short	n/a	n/a	n/a	1
450.797	0.383373632	INKLING	lure	n/a	n/a	n/a	1
451.18	0.383278277	CALIBER	lure	n/a	n/a	n/a	1
451.563	0.366662679	VIRTUOSITY	lure	n/a	n/a	n/a	1
451.93	0.49999652	AIRPLANE	lure	n/a	n/a	n/a	1
452.43	0.366657816	WINDOW	lure	n/a	n/a	n/a	1
452.797	0.699996283	EYESIGHT	lure	n/a	n/a	n/a	1
453.497	0.366659826	ECTOPLASM	lure	n/a	n/a	n/a	1
453.863	0.516658466	SPRAYER	lure	n/a	n/a	n/a	1
454.38	0.433328059	BOATHOUSE	lure	n/a	n/a	n/a	1
454.813	0.583320744	BLIMP	lure	n/a	n/a	n/a	1
455.397	0.783327217	SHARPENER	lure	n/a	n/a	n/a	1
456.18	0.667150198	GOODWILL	lure	n/a	n/a	n/a	1
456.847	0.499498488	LIFETIME	lure	n/a	n/a	n/a	1
457.347	0.399996927	FAIRWAY	lure	n/a	n/a	n/a	1
457.747	0.39999248	MORON	lure	n/a	n/a	n/a	1
458.147	0.333331397	CUPID	lure	n/a	n/a	n/a	1
458.48	0.583328162	INCAPACITY	lure	n/a	n/a	n/a	1
459.063	0.73518665	STAPLER	lure	n/a	n/a	n/a	1
459.799	0.481459192	PITCHFORK	lure	n/a	n/a	n/a	1
460.28	0.466658503	SQUEALER	lure	n/a	n/a	n/a	1
460.747	0.450065674	DEVELOPER	lure	n/a	n/a	n/a	1
461.197	0.466592195	FERRYBOAT	lure	n/a	n/a	n/a	1
461.663	0.349996085	LEGIBILITY	lure	n/a	n/a	n/a	1
462.013	0.433364591	SAVANNAH	lure	n/a	n/a	n/a	1
462.447	0.44995687	GENIE	lure	n/a	n/a	n/a	1
462.897	0.533322785	EARPIECE	lure	n/a	n/a	n/a	1
463.43	0.549998365	CHEST	lure	n/a	n/a	n/a	1
463.98	0.399992088	SLIPPER	lure	n/a	n/a	n/a	1
464.38	n/a	STEPLADDER	lure	n/a	n/a	n/a	1