onset	duration	stim	cond	RT	resp	cresp	acc
4.055	0.413441779	UNICORN	lure	n/a	n/a	n/a	1
4.468	0.733328751	INVESTMENT	lure	n/a	n/a	n/a	1
5.201	0.683318835	WOODYARD	lure	n/a	n/a	n/a	1
5.885	0.750034169	BRAT	lure	n/a	n/a	n/a	1
6.635	0.366621201	POSTMEN	lure	n/a	n/a	n/a	1
7.001	0.416660652	INCLUSION	lure	n/a	n/a	n/a	1
7.418	0.633325657	HEDGEHOG	lure	n/a	n/a	n/a	1
8.051	0.616657899	TIRE	short	n/a	n/a	n/a	1
8.668	0.733326326	URCHIN	lure	n/a	n/a	n/a	1
9.401	0.599990874	EXTROVERT	lure	n/a	n/a	n/a	1
10.001	0.749990923	FUTURISM	lure	n/a	n/a	n/a	1
10.751	0.383326056	WALLBOARD	lure	n/a	n/a	n/a	1
11.135	0.683322175	BESTSELLER	lure	n/a	n/a	n/a	1
11.818	0.666655552	VIEWER	lure	n/a	n/a	n/a	1
12.485	0.399995572	FROSTBITE	lure	n/a	n/a	n/a	1
12.885	0.56666208	CURATOR	lure	n/a	n/a	n/a	1
13.451	0.54999475	STICKLER	lure	n/a	n/a	n/a	1
14.001	0.766652987	PIETY	lure	n/a	n/a	n/a	1
14.768	0.400039883	SILICA	lure	n/a	n/a	n/a	1
15.168	0.599948278	GROUNDWORK	lure	n/a	n/a	n/a	1
15.768	0.349994115	NOMINATION	lure	n/a	n/a	n/a	1
16.118	1.016654776	BLACKBERRY	fruit	617	2	2	1
17.135	0.40003915	MOTHBALL	lure	n/a	n/a	n/a	1
17.535	0.399950759	EMBODIMENT	lure	n/a	n/a	n/a	1
17.934	0.733320821	MATERNITY	lure	n/a	n/a	n/a	1
18.668	0.666655554	MUSIC	lure	n/a	n/a	n/a	1
19.334	0.738052984	AFTERSHAVE	lure	n/a	n/a	n/a	1
20.073	0.711928132	LOCKER	lure	n/a	n/a	n/a	1
20.784	0.699995369	CERVIX	lure	n/a	n/a	n/a	1
21.484	0.399991978	TEAROOM	lure	n/a	n/a	n/a	1
21.884	0.433326018	PILLOW	lure	n/a	n/a	n/a	1
22.318	0.416663301	PARTRIDGE	lure	n/a	n/a	n/a	1
22.734	0.416660598	DAYLIGHT	lure	n/a	n/a	n/a	1
23.151	0.649989641	MOLECULE	lure	n/a	n/a	n/a	1
23.801	0.683325226	CAREERISM	lure	n/a	n/a	n/a	1
24.484	2.01664242	FIDDLE	long	n/a	n/a	n/a	1
26.501	0.550026532	DREAMWORLD	lure	n/a	n/a	n/a	1
27.051	0.43329118	ETHICIST	lure	n/a	n/a	n/a	1
27.484	0.399993355	INEPTITUDE	lure	n/a	n/a	n/a	1
27.884	0.649990714	VANDALISM	lure	n/a	n/a	n/a	1
28.534	0.749992861	PERSONNEL	lure	n/a	n/a	n/a	1
29.284	0.483367534	EPIGRAPH	lure	n/a	n/a	n/a	1
29.768	0.533282607	BILLFOLD	lure	n/a	n/a	n/a	1
30.301	0.333330451	WAD	lure	n/a	n/a	n/a	1
30.634	0.399989175	WORKBENCH	lure	n/a	n/a	n/a	1
31.034	0.69999436	CARPENTRY	lure	n/a	n/a	n/a	1
31.734	0.4833248	DEFIANCE	lure	n/a	n/a	n/a	1
32.218	0.649996197	WREATH	lure	n/a	n/a	n/a	1
32.868	2.016638584	DIAL	long	n/a	n/a	n/a	1
34.884	0.633324928	GEn/aE	lure	n/a	n/a	n/a	1
35.518	0.350038794	SCRIMMAGE	lure	n/a	n/a	n/a	1
35.868	0.433281105	EDUCATION	lure	n/a	n/a	n/a	1
36.301	0.483323781	GOURMET	lure	n/a	n/a	n/a	1
36.784	0.41666775	INTRUSION	lure	n/a	n/a	n/a	1
37.201	0.75003763	WINDOWSILL	lure	n/a	n/a	n/a	1
37.951	0.666608175	MEADOW	lure	n/a	n/a	n/a	1
38.618	0.416659066	KEEPER	lure	n/a	n/a	n/a	1
39.034	0.649988267	CHECKLIST	lure	n/a	n/a	n/a	1
39.684	0.533325992	COURIER	lure	n/a	n/a	n/a	1
40.218	0.783327108	RECITATIVE	lure	n/a	n/a	n/a	1
41.001	0.333324765	HURLER	lure	n/a	n/a	n/a	1
41.334	2.016642745	MAGNET	long	n/a	n/a	n/a	1
43.351	0.399995056	ATTENTION	lure	n/a	n/a	n/a	1
43.751	0.64999188	HAKE	lure	n/a	n/a	n/a	1
44.401	0.633326099	OVERLAP	lure	n/a	n/a	n/a	1
45.034	0.316656564	EXPIRATION	lure	n/a	n/a	n/a	1
45.351	0.516661802	VIOLIN	lure	n/a	n/a	n/a	1
45.867	0.599991152	LOCKSMITH	lure	n/a	n/a	n/a	1
46.467	0.616659104	PAINTBOX	lure	n/a	n/a	n/a	1
47.084	0.73332537	TYPOGRAPHY	lure	n/a	n/a	n/a	1
47.817	0.333326756	ADMIRER	lure	n/a	n/a	n/a	1
48.151	0.549993559	WISECRACK	lure	n/a	n/a	n/a	1
48.701	0.599990649	ICECAP	lure	n/a	n/a	n/a	1
49.301	0.416666083	STEAD	lure	n/a	n/a	n/a	1
49.717	0.616658312	BATON	short	n/a	n/a	n/a	1
50.334	0.616654414	CHAIRMEN	lure	n/a	n/a	n/a	1
50.951	0.733370566	VENTILATOR	lure	n/a	n/a	n/a	1
51.684	0.316615163	FISHERY	lure	n/a	n/a	n/a	1
52.001	0.716654014	PANORAMA	lure	n/a	n/a	n/a	1
52.717	0.383331352	PLATEFUL	lure	n/a	n/a	n/a	1
53.101	0.499993832	MANIFESTO	lure	n/a	n/a	n/a	1
53.601	0.552867311	SYNONYM	lure	n/a	n/a	n/a	1
54.154	0.563782192	SAILOR	lure	n/a	n/a	n/a	1
54.717	0.566661816	SONGBOOK	lure	n/a	n/a	n/a	1
55.284	0.716655547	MANKIND	lure	n/a	n/a	n/a	1
56.001	0.683322501	PIGSKIN	lure	n/a	n/a	n/a	1
56.684	0.666660788	SEVERANCE	lure	n/a	n/a	n/a	1
57.351	0.549990824	ARBOR	lure	n/a	n/a	n/a	1
57.901	0.616658532	ROPE	short	n/a	n/a	n/a	1
58.517	0.733324856	PRETZEL	lure	n/a	n/a	n/a	1
59.251	0.399990998	SUPERVISOR	lure	n/a	n/a	n/a	1
59.651	0.633326652	SWORDPLAY	lure	n/a	n/a	n/a	1
60.284	0.653868394	PERISCOPE	lure	n/a	n/a	n/a	1
60.938	0.496116027	BLOWGUN	lure	n/a	n/a	n/a	1
61.434	0.416661601	PACIFISM	lure	n/a	n/a	n/a	1
61.851	0.483328851	BASELINE	lure	n/a	n/a	n/a	1
62.334	0.666655188	NOUN	lure	n/a	n/a	n/a	1
63.001	0.566656227	POSITIVISM	lure	n/a	n/a	n/a	1
63.567	0.617932698	NEGATION	lure	n/a	n/a	n/a	1
64.185	0.565388644	CONTORTION	lure	n/a	n/a	n/a	1
64.751	0.416660817	NIRVANA	lure	n/a	n/a	n/a	1
65.167	0.366664481	GAZETTE	lure	n/a	n/a	n/a	1
65.534	0.483364686	CHOICE	lure	n/a	n/a	n/a	1
66.017	0.616620449	IODINE	short	n/a	n/a	n/a	1
66.634	0.61669548	SIDEKICK	lure	n/a	n/a	n/a	1
67.251	0.719507596	FOWLER	lure	n/a	n/a	n/a	1
67.97	0.580432338	STRAIT	lure	n/a	n/a	n/a	1
68.55	0.666656978	FLORA	lure	n/a	n/a	n/a	1
69.217	0.516659927	MENTALITY	lure	n/a	n/a	n/a	1
69.734	0.716662775	HAIKU	lure	n/a	n/a	n/a	1
70.45	0.349991107	TUTORIAL	lure	n/a	n/a	n/a	1
70.8	0.399992859	SITUATION	lure	n/a	n/a	n/a	1
71.2	0.533328592	VOCALISM	lure	n/a	n/a	n/a	1
71.734	0.649987182	WRONGDOER	lure	n/a	n/a	n/a	1
72.384	0.516662941	PASSWORD	lure	n/a	n/a	n/a	1
72.9	0.449992707	BRETHREN	lure	n/a	n/a	n/a	1
73.35	0.533326381	RIVERVIEW	lure	n/a	n/a	n/a	1
73.884	0.318769012	BOXER	lure	n/a	n/a	n/a	1
74.203	2.01453134	PLANET	long	n/a	n/a	n/a	1
76.217	0.666661907	FOREARM	lure	n/a	n/a	n/a	1
76.884	0.566657225	DEPOT	lure	n/a	n/a	n/a	1
77.45	0.351051152	ANTIBODY	lure	n/a	n/a	n/a	1
77.801	0.632271202	ESCALATOR	lure	n/a	n/a	n/a	1
78.434	0.466657368	WHISPERER	lure	n/a	n/a	n/a	1
78.9	0.583328124	SATIN	lure	n/a	n/a	n/a	1
79.484	0.466656994	NARCISSIST	lure	n/a	n/a	n/a	1
79.95	0.69999393	MAILER	lure	n/a	n/a	n/a	1
80.65	0.683324115	GATEKEEPER	lure	n/a	n/a	n/a	1
81.334	0.416658525	DILUTION	lure	n/a	n/a	n/a	1
81.75	0.599997021	PUBLISHER	lure	n/a	n/a	n/a	1
82.35	1.016645747	MULBERRY	fruit	760	2	2	1
83.367	0.449997791	BUMBLEBEE	lure	n/a	n/a	n/a	1
83.817	0.686705489	SYMBOLISM	lure	n/a	n/a	n/a	1
84.504	0.729939652	LITERACY	lure	n/a	n/a	n/a	1
85.234	0.416660697	STOVE	lure	n/a	n/a	n/a	1
85.65	0.349998134	ALIBI	lure	n/a	n/a	n/a	1
86	0.516660973	CONVOY	lure	n/a	n/a	n/a	1
86.517	0.383329772	CARNIVORE	lure	n/a	n/a	n/a	1
86.9	0.399988551	MODERNITY	lure	n/a	n/a	n/a	1
87.3	0.683327412	BACKBOARD	lure	n/a	n/a	n/a	1
87.984	0.399991593	MATINEE	lure	n/a	n/a	n/a	1
88.384	0.666659071	EPISODE	lure	n/a	n/a	n/a	1
89.05	0.599992393	CINDER	lure	n/a	n/a	n/a	1
89.65	0.483326069	TURNPIKE	lure	n/a	n/a	n/a	1
90.134	0.316661671	SILL	lure	n/a	n/a	n/a	1
90.45	2.016644944	DISTRICT	long	n/a	n/a	n/a	1
92.467	0.366657851	BROTHEL	lure	n/a	n/a	n/a	1
92.833	0.48332532	NONSMOKER	lure	n/a	n/a	n/a	1
93.317	0.416658876	FISHPOND	lure	n/a	n/a	n/a	1
93.733	0.533329682	TRIBESMAN	lure	n/a	n/a	n/a	1
94.267	0.633321358	DOCILITY	lure	n/a	n/a	n/a	1
94.9	0.649995917	GRANDMA	lure	n/a	n/a	n/a	1
95.55	0.649991289	SKYLARK	lure	n/a	n/a	n/a	1
96.2	0.749987292	DOZEN	lure	n/a	n/a	n/a	1
96.95	0.351873397	POLICEMAN	lure	n/a	n/a	n/a	1
97.302	0.498118248	COCHLEA	lure	n/a	n/a	n/a	1
97.8	0.516655759	COTTAGE	lure	n/a	n/a	n/a	1
98.317	0.483327175	PENALTY	lure	n/a	n/a	n/a	1
98.8	1.016650966	RASPBERRY	fruit	679	2	2	1
99.817	0.766659784	SANDALWOOD	lure	n/a	n/a	n/a	1
100.583	0.533322823	FACET	lure	n/a	n/a	n/a	1
101.117	0.533327355	GATOR	lure	n/a	n/a	n/a	1
101.65	0.333328852	ISOLATION	lure	n/a	n/a	n/a	1
101.983	0.433329382	ROUGHNECK	lure	n/a	n/a	n/a	1
102.417	0.549992597	FACILITY	lure	n/a	n/a	n/a	1
102.967	0.653963427	RIVERBED	lure	n/a	n/a	n/a	1
103.621	0.562684358	CORONET	lure	n/a	n/a	n/a	1
104.183	0.516660237	DIRECTIVE	lure	n/a	n/a	n/a	1
104.7	0.633326475	PLAYGROUND	lure	n/a	n/a	n/a	1
105.333	0.716657854	BROCHURE	lure	n/a	n/a	n/a	1
106.05	0.349992594	SELLER	lure	n/a	n/a	n/a	1
106.4	0.666657902	MOCCASIN	lure	n/a	n/a	n/a	1
107.067	0.616663312	CHALK	short	n/a	n/a	n/a	1
107.683	0.583319806	FEEDER	lure	n/a	n/a	n/a	1
108.267	0.433330018	CHIMPANZEE	lure	n/a	n/a	n/a	1
108.7	0.649988452	SANDAL	lure	n/a	n/a	n/a	1
109.35	0.399993986	STEREOTYPE	lure	n/a	n/a	n/a	1
109.75	0.766660398	TULIP	lure	n/a	n/a	n/a	1
110.517	0.716656165	DRUMSTICK	lure	n/a	n/a	n/a	1
111.233	0.683324378	MALLET	lure	n/a	n/a	n/a	1
111.917	0.466659315	TRUTH	lure	n/a	n/a	n/a	1
112.383	0.499993369	WIDTH	lure	n/a	n/a	n/a	1
112.883	0.483326319	BEDSPREAD	lure	n/a	n/a	n/a	1
113.367	0.649990652	DOORMEN	lure	n/a	n/a	n/a	1
114.017	0.449991936	RARITY	lure	n/a	n/a	n/a	1
114.467	0.716657432	ASSUMPTION	lure	n/a	n/a	n/a	1
115.183	0.716657595	QUACKERY	lure	n/a	n/a	n/a	1
115.9	2.016642908	HILL	long	n/a	n/a	n/a	1
117.916	0.73332011	PHYSICIAN	lure	n/a	n/a	n/a	1
118.65	0.683326554	POVERTY	lure	n/a	n/a	n/a	1
119.333	0.566654168	INFLUX	lure	n/a	n/a	n/a	1
119.9	0.516663933	BALLET	lure	n/a	n/a	n/a	1
120.416	0.449995259	IMPORT	lure	n/a	n/a	n/a	1
120.866	0.683323152	RENOWN	lure	n/a	n/a	n/a	1
121.55	0.516659158	EXPERT	lure	n/a	n/a	n/a	1
122.066	0.683327183	DAISY	lure	n/a	n/a	n/a	1
122.75	0.633323305	EVERGREEN	lure	n/a	n/a	n/a	1
123.383	0.383323344	ABSORPTION	lure	n/a	n/a	n/a	1
123.766	0.616667231	DOME	short	n/a	n/a	n/a	1
124.383	0.483321656	AIRLINER	lure	n/a	n/a	n/a	1
124.866	0.566659112	ZEST	lure	n/a	n/a	n/a	1
125.433	0.533322503	CURIOSITY	lure	n/a	n/a	n/a	1
125.966	0.683325139	VIEWPOINT	lure	n/a	n/a	n/a	1
126.65	0.399996943	RECITAL	lure	n/a	n/a	n/a	1
127.05	0.366663699	HICK	lure	n/a	n/a	n/a	1
127.416	0.416657224	CRAWLSPACE	lure	n/a	n/a	n/a	1
127.833	0.449992627	TEAPOT	lure	n/a	n/a	n/a	1
128.283	0.633330308	OVEN	lure	n/a	n/a	n/a	1
128.916	0.516654857	LUNCHTIME	lure	n/a	n/a	n/a	1
129.433	0.549991858	CARPORT	lure	n/a	n/a	n/a	1
129.983	0.616661979	RECORDER	lure	n/a	n/a	n/a	1
130.6	0.333325932	PULLBACK	lure	n/a	n/a	n/a	1
130.933	0.583327453	CELLIST	lure	n/a	n/a	n/a	1
131.516	0.316658231	PROXIMITY	lure	n/a	n/a	n/a	1
131.833	0.616662027	COLLAR	short	n/a	n/a	n/a	1
132.45	0.549994468	STIPEND	lure	n/a	n/a	n/a	1
133	0.366658223	INTERCOM	lure	n/a	n/a	n/a	1
133.366	0.333331952	POLICY	lure	n/a	n/a	n/a	1
133.7	0.416657963	CEREBRUM	lure	n/a	n/a	n/a	1
134.116	0.533328386	EXTRACT	lure	n/a	n/a	n/a	1
134.65	0.433326151	PHONOGRAPH	lure	n/a	n/a	n/a	1
135.083	0.666656546	FRAGILITY	lure	n/a	n/a	n/a	1
135.75	0.716655038	LATRINE	lure	n/a	n/a	n/a	1
136.466	0.433330497	VELVETEEN	lure	n/a	n/a	n/a	1
136.9	0.383328012	BOW	lure	n/a	n/a	n/a	1
137.283	0.668893343	MASCOT	lure	n/a	n/a	n/a	1
137.952	0.547755653	ALLOWANCE	lure	n/a	n/a	n/a	1
138.5	0.466659922	SIMILARITY	lure	n/a	n/a	n/a	1
138.966	0.383327576	SUPPER	lure	n/a	n/a	n/a	1
139.35	0.71666138	ARMOR	lure	n/a	n/a	n/a	1
140.066	2.016638795	MAST	long	n/a	n/a	n/a	1
142.083	0.616654901	CATALYST	lure	n/a	n/a	n/a	1
142.699	0.600038735	SHOWDOWN	lure	n/a	n/a	n/a	1
143.3	0.699946258	HOSIERY	lure	n/a	n/a	n/a	1
143.999	0.333326366	EYESTRAIN	lure	n/a	n/a	n/a	1
144.333	0.566659635	SHIPLOAD	lure	n/a	n/a	n/a	1
144.899	0.433327811	NOMAD	lure	n/a	n/a	n/a	1
145.333	0.666659671	PRUDE	lure	n/a	n/a	n/a	1
145.999	0.366661227	HARDTACK	lure	n/a	n/a	n/a	1
146.366	0.41666365	PATTERN	lure	n/a	n/a	n/a	1
146.783	0.53332073	DRIFTER	lure	n/a	n/a	n/a	1
147.316	0.499993278	MARKDOWN	lure	n/a	n/a	n/a	1
147.816	0.383332762	VIXEN	lure	n/a	n/a	n/a	1
148.199	2.016637177	SUDS	long	n/a	n/a	n/a	1
150.216	0.499992709	ASSAILANT	lure	n/a	n/a	n/a	1
150.716	0.450895962	MALCONTENT	lure	n/a	n/a	n/a	1
151.167	0.482422895	CAVITY	lure	n/a	n/a	n/a	1
151.649	0.683326302	DATA	lure	n/a	n/a	n/a	1
152.333	0.716658306	MADMEN	lure	n/a	n/a	n/a	1
153.049	0.799990596	SHUTTLE	lure	n/a	n/a	n/a	1
153.849	0.7509435	BELLBOY	lure	n/a	n/a	n/a	1
154.6	0.449036462	MISERY	lure	n/a	n/a	n/a	1
155.049	0.549994896	FARMYARD	lure	n/a	n/a	n/a	1
155.599	0.749987087	OUTPOST	lure	n/a	n/a	n/a	1
156.349	1.016652295	NECTARINE	fruit	649	2	2	1
157.366	0.549994271	CENTIMETER	lure	n/a	n/a	n/a	1
157.916	0.518251777	ASYLUM	lure	n/a	n/a	n/a	1
158.434	0.31507019	FLINT	lure	n/a	n/a	n/a	1
158.749	0.566657067	GIRDLE	lure	n/a	n/a	n/a	1
159.316	0.433331735	THUMBNAIL	lure	n/a	n/a	n/a	1
159.749	0.63332473	CRITERIA	lure	n/a	n/a	n/a	1
160.383	0.433329387	MARROW	lure	n/a	n/a	n/a	1
160.816	0.316659747	SUFFERER	lure	n/a	n/a	n/a	1
161.133	0.466661779	COFFEE	lure	n/a	n/a	n/a	1
161.599	0.483328941	ENTHUSIASM	lure	n/a	n/a	n/a	1
162.083	0.383321768	STRATEGY	lure	n/a	n/a	n/a	1
162.466	0.766662499	CHASM	lure	n/a	n/a	n/a	1
163.233	0.749989491	KRAUT	lure	n/a	n/a	n/a	1
163.983	0.699986108	SPLASHDOWN	lure	n/a	n/a	n/a	1
164.683	0.649993249	BASKET	short	n/a	n/a	n/a	1
165.332	0.66665372	INCEPTION	lure	n/a	n/a	n/a	1
165.999	0.416660844	BASSINET	lure	n/a	n/a	n/a	1
166.416	0.566660169	BLUEBIRD	lure	n/a	n/a	n/a	1
166.982	0.566662314	CONFORMITY	lure	n/a	n/a	n/a	1
167.549	0.766659391	DREAMER	lure	n/a	n/a	n/a	1
168.316	0.399988215	DISHARMONY	lure	n/a	n/a	n/a	1
168.716	0.399994037	GREEn/aOOM	lure	n/a	n/a	n/a	1
169.116	0.516659127	DISSENSION	lure	n/a	n/a	n/a	1
169.632	0.749992211	BOMBSIGHT	lure	n/a	n/a	n/a	1
170.382	0.483329288	HERMIT	lure	n/a	n/a	n/a	1
170.866	0.716653758	MANNER	lure	n/a	n/a	n/a	1
171.582	0.466703435	FREEDMEN	lure	n/a	n/a	n/a	1
172.049	0.383285694	METEORITE	lure	n/a	n/a	n/a	1
172.432	0.716657153	HIERARCHY	lure	n/a	n/a	n/a	1
173.149	1.016657659	PEAR	fruit	762	2	2	1
174.166	0.649985675	REACTION	lure	n/a	n/a	n/a	1
174.816	0.633328172	SEPARATISM	lure	n/a	n/a	n/a	1
175.449	0.749991869	COMMUNE	lure	n/a	n/a	n/a	1
176.199	0.716655276	EROSION	lure	n/a	n/a	n/a	1
176.916	0.783323482	MILLENIUM	lure	n/a	n/a	n/a	1
177.699	0.516658305	CRITERION	lure	n/a	n/a	n/a	1
178.216	0.599991222	BEGINNER	lure	n/a	n/a	n/a	1
178.816	0.349994018	STALLION	lure	n/a	n/a	n/a	1
179.166	0.516663985	INSISTENCE	lure	n/a	n/a	n/a	1
179.682	0.316656115	PENTAGRAM	lure	n/a	n/a	n/a	1
179.999	0.58333227	FLATFOOT	lure	n/a	n/a	n/a	1
180.582	0.49998849	DAMSEL	lure	n/a	n/a	n/a	1
181.082	2.016643516	CURTAIN	long	n/a	n/a	n/a	1
183.099	0.416655522	TUXEDO	lure	n/a	n/a	n/a	1
183.516	0.44999722	GUNPLAY	lure	n/a	n/a	n/a	1
183.966	0.483324572	DISHCLOTH	lure	n/a	n/a	n/a	1
184.449	0.333327578	SURVIVAL	lure	n/a	n/a	n/a	1
184.782	0.649994341	SORORITY	lure	n/a	n/a	n/a	1
185.432	0.54998835	RESOLUTION	lure	n/a	n/a	n/a	1
185.982	0.666658681	APARTHEID	lure	n/a	n/a	n/a	1
186.649	0.466661947	INCLINE	lure	n/a	n/a	n/a	1
187.116	0.316659783	OILFIELD	lure	n/a	n/a	n/a	1
187.432	0.49999762	ORATOR	lure	n/a	n/a	n/a	1
187.932	0.649993182	BOOKCASE	lure	n/a	n/a	n/a	1
188.582	0.499992174	CENT	lure	n/a	n/a	n/a	1
189.082	0.653943225	SCHOOLMATE	lure	n/a	n/a	n/a	1
189.736	0.61270112	MOUNTAIN	short	n/a	n/a	n/a	1
190.349	0.333334489	PAVILION	lure	n/a	n/a	n/a	1
190.682	0.399988493	PERIL	lure	n/a	n/a	n/a	1
191.082	0.616662019	ASCENDANCY	lure	n/a	n/a	n/a	1
191.699	0.383327378	SLINGER	lure	n/a	n/a	n/a	1
192.082	0.621323514	PLYWOOD	lure	n/a	n/a	n/a	1
192.703	0.595326377	EGGNOG	lure	n/a	n/a	n/a	1
193.299	0.716657718	WRANGLER	lure	n/a	n/a	n/a	1
194.015	0.366663001	BUFFET	lure	n/a	n/a	n/a	1
194.382	0.733321268	FLAW	lure	n/a	n/a	n/a	1
195.115	0.766661575	TROTH	lure	n/a	n/a	n/a	1
195.882	0.516652298	SLOAN	lure	n/a	n/a	n/a	1
196.399	0.633324894	SATELLITE	lure	n/a	n/a	n/a	1
197.032	0.616659157	GULLET	lure	n/a	n/a	n/a	1
197.649	0.316663603	LABORATORY	lure	n/a	n/a	n/a	1
197.965	0.616663015	POLISH	short	n/a	n/a	n/a	1
198.582	0.50409195	ADDITION	lure	n/a	n/a	n/a	1
199.086	0.329223771	TENOR	lure	n/a	n/a	n/a	1
199.415	0.549996776	CANCER	lure	n/a	n/a	n/a	1
199.965	0.433325314	RADIOGRAPH	lure	n/a	n/a	n/a	1
200.399	0.516664324	BANDSTAND	lure	n/a	n/a	n/a	1
200.915	0.416654103	PROFESSION	lure	n/a	n/a	n/a	1
201.332	0.316662318	TEXTILE	lure	n/a	n/a	n/a	1
201.649	0.483331293	SHIRE	lure	n/a	n/a	n/a	1
202.132	0.56665917	PARAGON	lure	n/a	n/a	n/a	1
202.699	0.683319416	FRAMER	lure	n/a	n/a	n/a	1
203.382	0.616663515	HIGHWAYMAN	lure	n/a	n/a	n/a	1
203.999	0.649993003	IGNITION	lure	n/a	n/a	n/a	1
204.649	0.533372085	SHELF	lure	n/a	n/a	n/a	1
205.182	0.483278551	COSTUME	lure	n/a	n/a	n/a	1
205.665	0.750026814	PENSION	lure	n/a	n/a	n/a	1
206.415	2.016601073	LUMBER	long	n/a	n/a	n/a	1
208.432	0.749994219	MISTLETOE	lure	n/a	n/a	n/a	1
209.182	0.399987005	GRIFFIN	lure	n/a	n/a	n/a	1
209.582	0.749990953	TRAITOR	lure	n/a	n/a	n/a	1
210.332	0.683323918	FANLIGHT	lure	n/a	n/a	n/a	1
211.015	0.69998985	CARTILAGE	lure	n/a	n/a	n/a	1
211.715	0.450001216	NUANCE	lure	n/a	n/a	n/a	1
212.165	0.766654978	WOODCUT	lure	n/a	n/a	n/a	1
212.932	0.333327282	LUMINOSITY	lure	n/a	n/a	n/a	1
213.265	0.349996507	CHISEL	lure	n/a	n/a	n/a	1
213.615	0.733318537	HEREDITY	lure	n/a	n/a	n/a	1
214.348	0.649995911	LATECOMER	lure	n/a	n/a	n/a	1
214.998	1.016649581	PLUM	fruit	648	2	2	1
216.015	0.316660276	DOMINION	lure	n/a	n/a	n/a	1
216.332	0.316663194	MISSTEP	lure	n/a	n/a	n/a	1
216.648	0.633325378	PERIMETER	lure	n/a	n/a	n/a	1
217.282	0.734177569	METEOROID	lure	n/a	n/a	n/a	1
218.016	0.482475922	REDUCTION	lure	n/a	n/a	n/a	1
218.498	0.433322932	HOBBY	lure	n/a	n/a	n/a	1
218.932	0.699990466	GAVEL	lure	n/a	n/a	n/a	1
219.632	0.483327091	FIREBRICK	lure	n/a	n/a	n/a	1
220.115	0.616661201	SIDELIGHT	lure	n/a	n/a	n/a	1
220.732	0.337550235	OUTRIGGER	lure	n/a	n/a	n/a	1
221.069	0.645767194	PEWTER	lure	n/a	n/a	n/a	1
221.715	0.616662474	FAIRYLAND	lure	n/a	n/a	n/a	1
222.332	0.549991736	ANARCHIST	lure	n/a	n/a	n/a	1
222.882	0.733321507	MISDEAL	lure	n/a	n/a	n/a	1
223.615	0.649994367	DOGCATCHER	lure	n/a	n/a	n/a	1
224.265	0.449995132	PREVENTION	lure	n/a	n/a	n/a	1
224.715	0.73332216	SHEEPSKIN	lure	n/a	n/a	n/a	1
225.448	0.599989033	MUD	lure	n/a	n/a	n/a	1
226.048	0.466660187	CONCAVITY	lure	n/a	n/a	n/a	1
226.515	n/a	INFAMY	lure	n/a	n/a	n/a	1
238.015	0.499989059	SEAHORSE	lure	n/a	n/a	n/a	1
238.515	0.699995616	STALEMATE	lure	n/a	n/a	n/a	1
239.215	0.599988996	ADHESION	lure	n/a	n/a	n/a	1
239.815	0.34999792	SALOON	lure	n/a	n/a	n/a	1
240.165	0.449994097	COMPLEMENT	lure	n/a	n/a	n/a	1
240.615	0.704116699	WRECKER	lure	n/a	n/a	n/a	1
241.319	0.645860455	POCKETFUL	lure	n/a	n/a	n/a	1
241.965	2.016643841	MAGNET	long	n/a	n/a	n/a	1
243.981	0.449993854	DOWNPOUR	lure	n/a	n/a	n/a	1
244.431	0.783323391	SCANDAL	lure	n/a	n/a	n/a	1
245.215	0.733324765	PENGUIN	lure	n/a	n/a	n/a	1
245.948	0.66665156	WARLOCK	lure	n/a	n/a	n/a	1
246.615	0.616658239	TOPSAIL	lure	n/a	n/a	n/a	1
247.231	0.716661637	MERGER	lure	n/a	n/a	n/a	1
247.948	0.733322678	THREAT	lure	n/a	n/a	n/a	1
248.681	0.333329283	STOCKYARD	lure	n/a	n/a	n/a	1
249.015	0.416661239	FLAGELLA	lure	n/a	n/a	n/a	1
249.431	0.449989374	JOVIALITY	lure	n/a	n/a	n/a	1
249.881	2.016644039	SUDS	long	n/a	n/a	n/a	1
251.898	0.733321532	MARSH	lure	n/a	n/a	n/a	1
252.631	0.416662289	BUMMER	lure	n/a	n/a	n/a	1
253.048	0.433325248	EARSHOT	lure	n/a	n/a	n/a	1
253.481	0.533325666	COWHIDE	lure	n/a	n/a	n/a	1
254.015	0.499992038	HYDRANT	lure	n/a	n/a	n/a	1
254.515	0.716661627	WHIMSEY	lure	n/a	n/a	n/a	1
255.231	0.433323493	FACT	lure	n/a	n/a	n/a	1
255.665	0.466662653	RESIDENT	lure	n/a	n/a	n/a	1
256.131	0.733320024	PERSONAGE	lure	n/a	n/a	n/a	1
256.865	0.599995549	STATESMEN	lure	n/a	n/a	n/a	1
257.465	0.583324945	DISHONESTY	lure	n/a	n/a	n/a	1
258.048	0.616662058	DOME	short	n/a	n/a	n/a	1
258.665	0.533319436	PRUDENCE	lure	n/a	n/a	n/a	1
259.198	0.583325307	PENMANSHIP	lure	n/a	n/a	n/a	1
259.781	0.549994487	DOWNER	lure	n/a	n/a	n/a	1
260.331	0.383330742	TRAFFIC	lure	n/a	n/a	n/a	1
260.715	0.633322147	EXTRACTION	lure	n/a	n/a	n/a	1
261.348	0.616666441	BONFIRE	lure	n/a	n/a	n/a	1
261.965	0.566649198	ABOLITION	lure	n/a	n/a	n/a	1
262.531	0.449998253	PAPA	lure	n/a	n/a	n/a	1
262.981	0.783323511	BOY	lure	n/a	n/a	n/a	1
263.765	0.516656386	VIGOR	lure	n/a	n/a	n/a	1
264.281	0.466658313	WRESTLER	lure	n/a	n/a	n/a	1
264.748	0.549994966	PROXY	lure	n/a	n/a	n/a	1
265.298	0.633326025	MAT	lure	n/a	n/a	n/a	1
265.931	0.416662412	BROWNIE	lure	n/a	n/a	n/a	1
266.348	1.016652906	STRAWBERRY	fruit	555	2	2	1
267.364	0.516659846	STREAKER	lure	n/a	n/a	n/a	1
267.881	0.483323815	NIP	lure	n/a	n/a	n/a	1
268.364	0.483328266	APPETIZER	lure	n/a	n/a	n/a	1
268.848	0.416662198	GUY	lure	n/a	n/a	n/a	1
269.264	0.733319663	ARTISTRY	lure	n/a	n/a	n/a	1
269.998	0.701933523	TRANSFER	lure	n/a	n/a	n/a	1
270.7	0.481385936	PETROLEUM	lure	n/a	n/a	n/a	1
271.181	0.549988879	MANDARIN	lure	n/a	n/a	n/a	1
271.731	0.399997648	SAILCLOTH	lure	n/a	n/a	n/a	1
272.131	0.333329931	INSTINCT	lure	n/a	n/a	n/a	1
272.464	0.483326345	TENDRIL	lure	n/a	n/a	n/a	1
272.948	0.71665752	SARCASM	lure	n/a	n/a	n/a	1
273.664	0.666655061	TECHNICIAN	lure	n/a	n/a	n/a	1
274.331	0.566663344	ANECDOTE	lure	n/a	n/a	n/a	1
274.898	2.016638573	DISTRICT	long	n/a	n/a	n/a	1
276.914	0.366659109	QUICHE	lure	n/a	n/a	n/a	1
277.281	0.616661371	ATTENDANT	lure	n/a	n/a	n/a	1
277.898	0.516654743	CROSSBOW	lure	n/a	n/a	n/a	1
278.414	0.68332693	LOCOMOTION	lure	n/a	n/a	n/a	1
279.098	0.416662945	EMPHYSEMA	lure	n/a	n/a	n/a	1
279.514	0.499988164	YOGA	lure	n/a	n/a	n/a	1
280.014	0.516661386	STATEMENT	lure	n/a	n/a	n/a	1
280.531	0.533326381	SURNAME	lure	n/a	n/a	n/a	1
281.064	0.583327517	MADWOMAN	lure	n/a	n/a	n/a	1
281.648	0.433323742	FACULTY	lure	n/a	n/a	n/a	1
282.081	0.466663999	BREADBOARD	lure	n/a	n/a	n/a	1
282.548	0.602471706	TOURISM	lure	n/a	n/a	n/a	1
283.15	0.614175933	BASKET	short	n/a	n/a	n/a	1
283.764	0.649990324	IMPROVISER	lure	n/a	n/a	n/a	1
284.414	0.466660029	MULLET	lure	n/a	n/a	n/a	1
284.881	0.416670745	STEPSON	lure	n/a	n/a	n/a	1
285.298	0.416653328	CORRECTION	lure	n/a	n/a	n/a	1
285.714	0.533328513	SIDEWALK	lure	n/a	n/a	n/a	1
286.248	0.583325408	CATEGORY	lure	n/a	n/a	n/a	1
286.831	0.566661072	DISPARITY	lure	n/a	n/a	n/a	1
287.398	0.499990272	CULPRIT	lure	n/a	n/a	n/a	1
287.898	0.433327554	CARNIVAL	lure	n/a	n/a	n/a	1
288.331	0.633321961	ADVERT	lure	n/a	n/a	n/a	1
288.964	0.669339993	CLUBFOOT	lure	n/a	n/a	n/a	1
289.633	0.330648949	NEWCOMER	lure	n/a	n/a	n/a	1
289.964	0.383326136	BACKTALK	lure	n/a	n/a	n/a	1
290.347	0.516659676	POSTERITY	lure	n/a	n/a	n/a	1
290.864	0.733322067	GROWER	lure	n/a	n/a	n/a	1
291.597	0.649994681	COLLAR	short	n/a	n/a	n/a	1
292.247	0.466664	HANGUP	lure	n/a	n/a	n/a	1
292.714	0.383324397	RESPONSE	lure	n/a	n/a	n/a	1
293.097	0.566660158	TITAN	lure	n/a	n/a	n/a	1
293.664	0.399992512	ROBBER	lure	n/a	n/a	n/a	1
294.064	0.433328912	OILSKIN	lure	n/a	n/a	n/a	1
294.497	0.58332507	WIDOWER	lure	n/a	n/a	n/a	1
295.081	0.483328164	TOURNAMENT	lure	n/a	n/a	n/a	1
295.564	0.4499904	TEENAGER	lure	n/a	n/a	n/a	1
296.014	0.566661254	DRAUGHT	lure	n/a	n/a	n/a	1
296.581	0.533325976	LANTERN	lure	n/a	n/a	n/a	1
297.114	0.399991201	CHROME	lure	n/a	n/a	n/a	1
297.514	0.499994598	RIVERBANK	lure	n/a	n/a	n/a	1
298.014	0.483330051	BOOTH	lure	n/a	n/a	n/a	1
298.497	0.416657898	LIEUTENANT	lure	n/a	n/a	n/a	1
298.914	0.316662744	SHANK	lure	n/a	n/a	n/a	1
299.231	0.666659194	NEWSREADER	lure	n/a	n/a	n/a	1
299.897	2.016638122	PLANET	long	n/a	n/a	n/a	1
301.914	0.516658972	EARDRUM	lure	n/a	n/a	n/a	1
302.431	0.63332704	ANCESTRY	lure	n/a	n/a	n/a	1
303.064	0.549989282	RECTANGLE	lure	n/a	n/a	n/a	1
303.614	0.566665141	CARGO	lure	n/a	n/a	n/a	1
304.181	0.583323572	QUANDARY	lure	n/a	n/a	n/a	1
304.764	0.683324197	MALLARD	lure	n/a	n/a	n/a	1
305.447	0.683323212	HOOP	lure	n/a	n/a	n/a	1
306.131	0.699989953	WHEELCHAIR	lure	n/a	n/a	n/a	1
306.831	0.716654193	HEADSET	lure	n/a	n/a	n/a	1
307.547	0.349999972	PROTON	lure	n/a	n/a	n/a	1
307.897	1.016648735	STRAWBERRY	fruit	629	2	2	1
308.914	0.633328356	GRAM	lure	n/a	n/a	n/a	1
309.547	0.766657825	SINGLETON	lure	n/a	n/a	n/a	1
310.314	0.666652115	HASHISH	lure	n/a	n/a	n/a	1
310.981	0.449997624	KNITWEAR	lure	n/a	n/a	n/a	1
311.431	0.566659265	CLIQUE	lure	n/a	n/a	n/a	1
311.997	0.483328653	SPARKLER	lure	n/a	n/a	n/a	1
312.481	0.349996133	EMULATION	lure	n/a	n/a	n/a	1
312.831	0.716653124	GLEN	lure	n/a	n/a	n/a	1
313.547	0.333328674	DECIBEL	lure	n/a	n/a	n/a	1
313.88	0.716655756	BANGLE	lure	n/a	n/a	n/a	1
314.597	0.683327085	ILLITERACY	lure	n/a	n/a	n/a	1
315.28	0.649990138	DISUSE	lure	n/a	n/a	n/a	1
315.93	0.649987629	COLA	lure	n/a	n/a	n/a	1
316.58	2.016648486	MAST	long	n/a	n/a	n/a	1
318.597	0.566651037	GUNSLINGER	lure	n/a	n/a	n/a	1
319.164	0.733326019	SANDSTORM	lure	n/a	n/a	n/a	1
319.897	0.566657073	TURTLEDOVE	lure	n/a	n/a	n/a	1
320.464	0.399994318	ANNOUNCER	lure	n/a	n/a	n/a	1
320.864	0.399994803	PRIORITY	lure	n/a	n/a	n/a	1
321.264	0.716658983	DIVISION	lure	n/a	n/a	n/a	1
321.98	0.668678874	LIMBO	lure	n/a	n/a	n/a	1
322.649	0.664638192	CLERGY	lure	n/a	n/a	n/a	1
323.314	0.51665785	EYELET	lure	n/a	n/a	n/a	1
323.83	0.466657991	HORSEBACK	lure	n/a	n/a	n/a	1
324.297	0.366662107	ROADHOUSE	lure	n/a	n/a	n/a	1
324.664	0.616657291	POLISH	short	n/a	n/a	n/a	1
325.28	0.599994509	BLACKBOARD	lure	n/a	n/a	n/a	1
325.88	0.383328652	COPYCAT	lure	n/a	n/a	n/a	1
326.264	0.699990453	FREEDOM	lure	n/a	n/a	n/a	1
326.964	0.533323648	NAMEPLATE	lure	n/a	n/a	n/a	1
327.497	0.733325398	CLOSEOUT	lure	n/a	n/a	n/a	1
328.23	0.766655918	CHUMP	lure	n/a	n/a	n/a	1
328.997	0.721354638	BANDMASTER	lure	n/a	n/a	n/a	1
329.718	0.478628355	INVITATION	lure	n/a	n/a	n/a	1
330.197	0.599993994	REFERENT	lure	n/a	n/a	n/a	1
330.797	0.699992615	CLICHE	lure	n/a	n/a	n/a	1
331.497	0.516656979	PATROLMAN	lure	n/a	n/a	n/a	1
332.014	0.649991865	LIFEBLOOD	lure	n/a	n/a	n/a	1
332.664	0.533325942	DROPOUT	lure	n/a	n/a	n/a	1
333.197	1.016651579	RASPBERRY	fruit	602	2	2	1
334.214	0.449997649	STUPOR	lure	n/a	n/a	n/a	1
334.664	0.433324667	PANACEA	lure	n/a	n/a	n/a	1
335.097	0.333328952	MISUSE	lure	n/a	n/a	n/a	1
335.43	0.399993225	LIGHTBULB	lure	n/a	n/a	n/a	1
335.83	0.466661071	MANNERISM	lure	n/a	n/a	n/a	1
336.297	0.599988962	TRUNK	lure	n/a	n/a	n/a	1
336.897	0.350000851	WASP	lure	n/a	n/a	n/a	1
337.247	0.316657913	BROADSHEET	lure	n/a	n/a	n/a	1
337.564	0.349994287	HEIR	lure	n/a	n/a	n/a	1
337.913	0.70000062	CHAMELEON	lure	n/a	n/a	n/a	1
338.613	0.66664849	AIDE	lure	n/a	n/a	n/a	1
339.28	0.366663478	PICKER	lure	n/a	n/a	n/a	1
339.647	0.666656121	TRAINEE	lure	n/a	n/a	n/a	1
340.313	0.316661341	CRUST	lure	n/a	n/a	n/a	1
340.63	0.699989743	WASHBASIN	lure	n/a	n/a	n/a	1
341.33	0.566664379	MAGNETISM	lure	n/a	n/a	n/a	1
341.897	1.016652077	STRAWBERRY	fruit	534	2	2	1
342.913	0.399991157	QUARTZ	lure	n/a	n/a	n/a	1
343.313	0.683325096	FLAGSHIP	lure	n/a	n/a	n/a	1
343.997	0.383329546	VOGUE	lure	n/a	n/a	n/a	1
344.38	0.433323917	MICROPHONE	lure	n/a	n/a	n/a	1
344.813	0.41666457	REGRESSION	lure	n/a	n/a	n/a	1
345.23	0.649990614	BURNER	lure	n/a	n/a	n/a	1
345.88	0.316661017	YOGURT	lure	n/a	n/a	n/a	1
346.197	0.699990288	COUNTDOWN	lure	n/a	n/a	n/a	1
346.897	0.616657775	SABLE	lure	n/a	n/a	n/a	1
347.513	0.53333155	TANKER	lure	n/a	n/a	n/a	1
348.047	0.649985923	HAIRBRUSH	lure	n/a	n/a	n/a	1
348.697	0.41666286	SCRAMBLER	lure	n/a	n/a	n/a	1
349.113	0.433326346	COUNCILMAN	lure	n/a	n/a	n/a	1
349.547	0.566660707	KICKBACK	lure	n/a	n/a	n/a	1
350.113	0.649991632	TIRE	short	n/a	n/a	n/a	1
350.763	0.566659611	BARBARIAN	lure	n/a	n/a	n/a	1
351.33	0.349997774	TAXATION	lure	n/a	n/a	n/a	1
351.68	0.716654474	QUARK	lure	n/a	n/a	n/a	1
352.397	0.766655964	DROPPER	lure	n/a	n/a	n/a	1
353.163	0.683322371	EARRING	lure	n/a	n/a	n/a	1
353.847	0.683325896	HANGOUT	lure	n/a	n/a	n/a	1
354.53	0.416657747	HOMOPHONE	lure	n/a	n/a	n/a	1
354.947	0.333333061	TIGHTWAD	lure	n/a	n/a	n/a	1
355.28	0.616660191	INDUCTION	lure	n/a	n/a	n/a	1
355.897	0.466657373	SALMON	lure	n/a	n/a	n/a	1
356.363	0.316660277	STATUARY	lure	n/a	n/a	n/a	1
356.68	0.633324737	PARCHMENT	lure	n/a	n/a	n/a	1
357.313	0.683324709	APOSTROPHE	lure	n/a	n/a	n/a	1
357.997	0.633326597	MAKER	lure	n/a	n/a	n/a	1
358.63	0.61665876	ROPE	short	n/a	n/a	n/a	1
359.247	0.7333227	NUTRIENT	lure	n/a	n/a	n/a	1
359.98	0.666656547	REVENGE	lure	n/a	n/a	n/a	1
360.647	0.516659497	EXCITEMENT	lure	n/a	n/a	n/a	1
361.163	0.333331408	SIGNALMAN	lure	n/a	n/a	n/a	1
361.497	0.649989835	MINELAYER	lure	n/a	n/a	n/a	1
362.147	0.599992318	ICEMAN	lure	n/a	n/a	n/a	1
362.746	0.449990547	MOVER	lure	n/a	n/a	n/a	1
363.196	0.549992303	COVE	lure	n/a	n/a	n/a	1
363.746	0.333334886	SUMMERTIME	lure	n/a	n/a	n/a	1
364.08	0.616655867	JOYSTICK	lure	n/a	n/a	n/a	1
364.696	0.733324216	ENACTMENT	lure	n/a	n/a	n/a	1
365.43	0.499991587	VALLEY	lure	n/a	n/a	n/a	1
365.93	0.449994689	TURNOUT	lure	n/a	n/a	n/a	1
366.38	1.016655002	BLACKBERRY	fruit	643	2	2	1
367.396	0.583323576	INSOLE	lure	n/a	n/a	n/a	1
367.98	0.533325528	NIGHTFALL	lure	n/a	n/a	n/a	1
368.513	0.483323869	CHEAPSKATE	lure	n/a	n/a	n/a	1
368.996	0.449994868	FERTILITY	lure	n/a	n/a	n/a	1
369.446	0.433326368	AIRLINE	lure	n/a	n/a	n/a	1
369.88	0.616658448	ARTILLERY	lure	n/a	n/a	n/a	1
370.496	0.733322511	FOOTHOLD	lure	n/a	n/a	n/a	1
371.23	0.366667286	POLYGON	lure	n/a	n/a	n/a	1
371.596	0.733360528	BEDSTEAD	lure	n/a	n/a	n/a	1
372.33	0.599952724	EMPIRE	lure	n/a	n/a	n/a	1
372.93	0.466662166	FOREMAN	lure	n/a	n/a	n/a	1
373.396	0.433324377	HEADLINE	lure	n/a	n/a	n/a	1
373.83	0.56666143	JUMPER	lure	n/a	n/a	n/a	1
374.396	0.433369803	SEDATIVE	lure	n/a	n/a	n/a	1
374.83	2.01659945	HILL	long	n/a	n/a	n/a	1
376.846	0.499987193	VISOR	lure	n/a	n/a	n/a	1
377.346	0.549999315	SKYWAY	lure	n/a	n/a	n/a	1
377.896	0.599984949	PAR	lure	n/a	n/a	n/a	1
378.496	0.549996263	DRUMBEAT	lure	n/a	n/a	n/a	1
379.046	0.583322844	SEVERITY	lure	n/a	n/a	n/a	1
379.63	0.399997001	LONGBOW	lure	n/a	n/a	n/a	1
380.03	0.366664703	SONATA	lure	n/a	n/a	n/a	1
380.396	0.333324286	ALTERATION	lure	n/a	n/a	n/a	1
380.73	0.733322616	PAPERBACK	lure	n/a	n/a	n/a	1
381.463	0.383328782	COLESLAW	lure	n/a	n/a	n/a	1
381.846	0.683322149	BARNACLE	lure	n/a	n/a	n/a	1
382.53	0.549993795	BRAIN	lure	n/a	n/a	n/a	1
383.08	0.616658225	IODINE	short	n/a	n/a	n/a	1
383.696	0.516659794	INFORMER	lure	n/a	n/a	n/a	1
384.213	0.699989346	DENOTATION	lure	n/a	n/a	n/a	1
384.913	0.616661713	HOLLY	lure	n/a	n/a	n/a	1
385.53	0.733321694	HORSEMAN	lure	n/a	n/a	n/a	1
386.263	0.433326579	BALM	lure	n/a	n/a	n/a	1
386.696	0.716656324	DARLING	lure	n/a	n/a	n/a	1
387.413	0.616661427	DRUDGERY	lure	n/a	n/a	n/a	1
388.029	0.466659389	GESTALT	lure	n/a	n/a	n/a	1
388.496	0.399995507	NORM	lure	n/a	n/a	n/a	1
388.896	0.616658379	PREDICTION	lure	n/a	n/a	n/a	1
389.513	0.39999755	PROFUSION	lure	n/a	n/a	n/a	1
389.913	0.583319271	JEEP	lure	n/a	n/a	n/a	1
390.496	0.383331296	TORT	lure	n/a	n/a	n/a	1
390.879	0.433327664	AMMO	lure	n/a	n/a	n/a	1
391.313	2.016637145	FIDDLE	long	n/a	n/a	n/a	1
393.329	0.599991931	CONVERSANT	lure	n/a	n/a	n/a	1
393.929	0.616657604	RENEWAL	lure	n/a	n/a	n/a	1
394.546	0.416660839	SIXPENCE	lure	n/a	n/a	n/a	1
394.963	0.649994925	BRUSHWOOD	lure	n/a	n/a	n/a	1
395.613	0.383327126	SINGSONG	lure	n/a	n/a	n/a	1
395.996	0.466662007	PILGRIMAGE	lure	n/a	n/a	n/a	1
396.463	0.449990765	CRAWFISH	lure	n/a	n/a	n/a	1
396.913	0.74998865	NATURE	lure	n/a	n/a	n/a	1
397.663	0.316667181	WASHOUT	lure	n/a	n/a	n/a	1
397.979	0.633323444	MELODY	lure	n/a	n/a	n/a	1
398.613	0.61665856	RECITATION	lure	n/a	n/a	n/a	1
399.229	1.016649548	MELON	fruit	n/a	n/a	2	0
400.246	0.533326472	GRAVEL	lure	n/a	n/a	n/a	1
400.779	0.333331627	WHOPPER	lure	n/a	n/a	n/a	1
401.113	0.366662676	HEADWIND	lure	n/a	n/a	n/a	1
401.479	0.599991883	EXCISE	lure	n/a	n/a	n/a	1
402.079	0.549991659	LEAGUE	lure	n/a	n/a	n/a	1
402.629	0.366661446	CROSSOVER	lure	n/a	n/a	n/a	1
402.996	0.416661873	SURREALIST	lure	n/a	n/a	n/a	1
403.413	0.449992611	SCARFACE	lure	n/a	n/a	n/a	1
403.863	0.433328664	SABOTAGE	lure	n/a	n/a	n/a	1
404.296	0.399992474	BADGE	lure	n/a	n/a	n/a	1
404.696	0.399996764	RODEO	lure	n/a	n/a	n/a	1
405.096	0.599987985	THERAPY	lure	n/a	n/a	n/a	1
405.696	0.649995175	INSTIGATOR	lure	n/a	n/a	n/a	1
406.346	0.649990917	CARRYOUT	lure	n/a	n/a	n/a	1
406.996	0.7371769	FIST	lure	n/a	n/a	n/a	1
407.733	2.046120408	CURTAIN	long	n/a	n/a	n/a	1
409.779	0.333326882	INSURANCE	lure	n/a	n/a	n/a	1
410.113	0.333325061	SUBSIDY	lure	n/a	n/a	n/a	1
410.446	0.352572796	GOVERNMENT	lure	n/a	n/a	n/a	1
410.798	0.71408346	FRESHMEN	lure	n/a	n/a	n/a	1
411.513	0.399992563	AISLE	lure	n/a	n/a	n/a	1
411.912	0.483329512	HUBCAP	lure	n/a	n/a	n/a	1
412.396	0.699987703	MAGNATE	lure	n/a	n/a	n/a	1
413.096	0.316665728	YOUNGSTER	lure	n/a	n/a	n/a	1
413.412	0.516658966	DEPORTMENT	lure	n/a	n/a	n/a	1
413.929	0.566658293	PRESENCE	lure	n/a	n/a	n/a	1
414.496	0.73332034	ADORNMENT	lure	n/a	n/a	n/a	1
415.229	0.449995273	INNKEEPER	lure	n/a	n/a	n/a	1
415.679	2.016638327	LUMBER	long	n/a	n/a	n/a	1
417.696	0.733322973	TON	lure	n/a	n/a	n/a	1
418.429	0.433369031	PITCHER	lure	n/a	n/a	n/a	1
418.862	0.749952662	MASTERY	lure	n/a	n/a	n/a	1
419.612	0.5666613	JIGSAW	lure	n/a	n/a	n/a	1
420.179	0.483327127	VIAL	lure	n/a	n/a	n/a	1
420.662	0.74998399	OXIDATION	lure	n/a	n/a	n/a	1
421.412	0.666719888	TURNCOAT	lure	n/a	n/a	n/a	1
422.079	0.599927518	SAUCEPAN	lure	n/a	n/a	n/a	1
422.679	0.383331836	WIG	lure	n/a	n/a	n/a	1
423.062	0.671433544	CORNFLOWER	lure	n/a	n/a	n/a	1
423.734	0.645213074	PANDA	lure	n/a	n/a	n/a	1
424.379	0.616661728	MOUNTAIN	short	n/a	n/a	n/a	1
424.996	0.599991704	CONVEYOR	lure	n/a	n/a	n/a	1
425.596	0.716660919	INNOCENCE	lure	n/a	n/a	n/a	1
426.312	0.499989165	CRUCIFIX	lure	n/a	n/a	n/a	1
426.812	0.433330814	DINOSAUR	lure	n/a	n/a	n/a	1
427.246	0.383325851	CANON	lure	n/a	n/a	n/a	1
427.629	0.66665296	CARNAGE	lure	n/a	n/a	n/a	1
428.296	0.633326153	STRENGTH	lure	n/a	n/a	n/a	1
428.929	0.499996104	ENGAGEMENT	lure	n/a	n/a	n/a	1
429.429	0.433327167	SHIPBOARD	lure	n/a	n/a	n/a	1
429.862	0.316660323	MURAL	lure	n/a	n/a	n/a	1
430.179	0.649995448	RIBOFLAVIN	lure	n/a	n/a	n/a	1
430.829	0.566659975	COLE	lure	n/a	n/a	n/a	1
431.396	0.733322372	RESEARCHER	lure	n/a	n/a	n/a	1
432.129	0.349990035	ICEBREAKER	lure	n/a	n/a	n/a	1
432.479	0.649995263	BATON	short	n/a	n/a	n/a	1
433.129	0.383718545	GUPPY	lure	n/a	n/a	n/a	1
433.513	0.532935307	TRIAD	lure	n/a	n/a	n/a	1
434.046	0.416658839	INDICATION	lure	n/a	n/a	n/a	1
434.462	0.69999315	PRONOUN	lure	n/a	n/a	n/a	1
435.162	0.583322712	TELETYPE	lure	n/a	n/a	n/a	1
435.746	0.616659453	COUPLET	lure	n/a	n/a	n/a	1
436.362	0.71933085	PEGBOARD	lure	n/a	n/a	n/a	1
437.081	0.430695617	STEALTH	lure	n/a	n/a	n/a	1
437.512	0.549951699	OCEANSIDE	lure	n/a	n/a	n/a	1
438.062	0.666654168	LYMPH	lure	n/a	n/a	n/a	1
438.729	0.566658125	AMULET	lure	n/a	n/a	n/a	1
439.295	0.483331044	FOREFRONT	lure	n/a	n/a	n/a	1
439.779	0.421038784	IMMATURITY	lure	n/a	n/a	n/a	1
440.2	0.595613031	LLAMA	lure	n/a	n/a	n/a	1
440.795	0.616659896	CHALK	short	n/a	n/a	n/a	1
441.412	0.533323978	ELF	lure	n/a	n/a	n/a	1
441.945	0.366661387	SINKHOLE	lure	n/a	n/a	n/a	1
442.312	0.366663748	SLEEVE	lure	n/a	n/a	n/a	1
442.679	0.333329198	EPITAPH	lure	n/a	n/a	n/a	1
443.012	0.799985518	VIABILITY	lure	n/a	n/a	n/a	1
443.812	0.466664892	TRIBESMEN	lure	n/a	n/a	n/a	1
444.279	0.733318883	FOOTPAD	lure	n/a	n/a	n/a	1
445.012	0.499994569	WOLFHOUND	lure	n/a	n/a	n/a	1
445.512	0.616664243	SHEATH	lure	n/a	n/a	n/a	1
446.129	0.616654015	SAINTHOOD	lure	n/a	n/a	n/a	1
446.745	0.683321542	STONEWARE	lure	n/a	n/a	n/a	1
447.429	0.566662489	EVENING	lure	n/a	n/a	n/a	1
447.995	0.533326088	BIPLANE	lure	n/a	n/a	n/a	1
448.529	0.333329056	STEAMSHIP	lure	n/a	n/a	n/a	1
448.862	2.049972376	DIAL	long	n/a	n/a	n/a	1
450.912	0.583321721	OUTCOME	lure	n/a	n/a	n/a	1
451.495	0.349995217	WINDBREAK	lure	n/a	n/a	n/a	1
451.845	0.733324526	VARIATION	lure	n/a	n/a	n/a	1
452.579	0.733323211	FORMAT	lure	n/a	n/a	n/a	1
453.312	0.70051279	PETTICOAT	lure	n/a	n/a	n/a	1
454.012	0.632804121	CREWMEN	lure	n/a	n/a	n/a	1
454.645	0.599992504	RESTAURANT	lure	n/a	n/a	n/a	1
455.245	0.533326938	SERGE	lure	n/a	n/a	n/a	1
455.779	0.649986965	DUGOUT	lure	n/a	n/a	n/a	1
456.429	0.366665749	KARMA	lure	n/a	n/a	n/a	1
456.795	0.516659697	MEDIATION	lure	n/a	n/a	n/a	1
457.312	0.46665844	ITEM	lure	n/a	n/a	n/a	1
457.779	0.699992594	TEARDROP	lure	n/a	n/a	n/a	1
458.479	0.516659101	PULPIT	lure	n/a	n/a	n/a	1
458.995	0.716654668	GYM	lure	n/a	n/a	n/a	1
459.712	0.649991321	VESTIBULE	lure	n/a	n/a	n/a	1
460.362	0.633326197	SOLEMNITY	lure	n/a	n/a	n/a	1
460.995	0.549990981	ANTENNAE	lure	n/a	n/a	n/a	1
461.545	0.633323528	MEN	lure	n/a	n/a	n/a	1
462.178	0.649994214	SUBTYPE	lure	n/a	n/a	n/a	1
462.828	0.599991972	HINDRANCE	lure	n/a	n/a	n/a	1
463.428	0.483327199	SUNSPOT	lure	n/a	n/a	n/a	1
463.912	0.466662726	FLAX	lure	n/a	n/a	n/a	1
464.378	0.36665845	VENGEANCE	lure	n/a	n/a	n/a	1
464.745	n/a	CUPBOARD	lure	n/a	n/a	n/a	1