onset	duration	stim	cond	RT	resp	cresp	acc
4.049	0.316659849	BULLRING	lure	n/a	n/a	n/a	1
4.365	0.683327615	SACKCLOTH	lure	n/a	n/a	n/a	1
5.049	0.733318986	DISARRAY	lure	n/a	n/a	n/a	1
5.782	0.333329823	CROSSBEAM	lure	n/a	n/a	n/a	1
6.115	0.599995482	ACCEPTANCE	lure	n/a	n/a	n/a	1
6.715	0.366662059	MEMO	lure	n/a	n/a	n/a	1
7.082	0.700027103	SCRUTINY	lure	n/a	n/a	n/a	1
7.782	2.016605607	MAST	long	n/a	n/a	n/a	1
9.799	0.333327892	HARPIST	lure	n/a	n/a	n/a	1
10.132	0.650046464	COMMA	lure	n/a	n/a	n/a	1
10.782	0.449932788	PIGTAIL	lure	n/a	n/a	n/a	1
11.232	0.366664545	LOCALE	lure	n/a	n/a	n/a	1
11.599	0.350048334	ENEMY	lure	n/a	n/a	n/a	1
11.949	0.416606682	EYEPIECE	lure	n/a	n/a	n/a	1
12.365	0.616659599	DISCOVERY	lure	n/a	n/a	n/a	1
12.982	0.366664631	SONAR	lure	n/a	n/a	n/a	1
13.349	0.449995306	GRAD	lure	n/a	n/a	n/a	1
13.799	0.633321913	EMINENCE	lure	n/a	n/a	n/a	1
14.432	0.699987586	TEXT	lure	n/a	n/a	n/a	1
15.132	0.600052096	ROOK	lure	n/a	n/a	n/a	1
15.732	2.016582541	DIAL	long	n/a	n/a	n/a	1
17.749	0.699988033	ANARCHY	lure	n/a	n/a	n/a	1
18.449	0.483329192	RAIDER	lure	n/a	n/a	n/a	1
18.932	0.749988003	CRITICISM	lure	n/a	n/a	n/a	1
19.682	0.666655606	HERBIVORE	lure	n/a	n/a	n/a	1
20.348	0.350196573	COMPLETION	lure	n/a	n/a	n/a	1
20.699	0.483127291	GOAT	lure	n/a	n/a	n/a	1
21.182	0.399996992	INVENTORY	lure	n/a	n/a	n/a	1
21.582	0.333331435	CANTEEN	lure	n/a	n/a	n/a	1
21.915	0.549989756	POETRY	lure	n/a	n/a	n/a	1
22.465	0.433324699	FORMULA	lure	n/a	n/a	n/a	1
22.898	0.549995612	LAKE	lure	n/a	n/a	n/a	1
23.448	0.733324146	SKYLINE	lure	n/a	n/a	n/a	1
24.182	0.616657698	BATON	short	n/a	n/a	n/a	1
24.798	0.733318834	CRUSADE	lure	n/a	n/a	n/a	1
25.532	0.483331083	GENEROSITY	lure	n/a	n/a	n/a	1
26.015	0.333329181	POLICEMEN	lure	n/a	n/a	n/a	1
26.348	0.483322737	HARDBOARD	lure	n/a	n/a	n/a	1
26.832	0.43663799	KNOCKDOWN	lure	n/a	n/a	n/a	1
27.268	0.430020811	SPIRIT	lure	n/a	n/a	n/a	1
27.698	0.333327848	CARRYOVER	lure	n/a	n/a	n/a	1
28.032	0.449992132	NEWSCASTER	lure	n/a	n/a	n/a	1
28.482	0.599992036	FAMILY	lure	n/a	n/a	n/a	1
29.082	0.383329742	IMPUTATION	lure	n/a	n/a	n/a	1
29.465	0.633326892	WORKER	lure	n/a	n/a	n/a	1
30.098	0.583320667	SCRIPTURE	lure	n/a	n/a	n/a	1
30.682	0.316668924	AUDITOR	lure	n/a	n/a	n/a	1
30.998	0.333371296	TABOO	lure	n/a	n/a	n/a	1
31.332	0.366615084	TREE	lure	n/a	n/a	n/a	1
31.698	0.600052403	HEADBOARD	lure	n/a	n/a	n/a	1
32.298	2.016584009	PLANET	long	n/a	n/a	n/a	1
34.315	0.71664965	BASKETBALL	lure	n/a	n/a	n/a	1
35.032	0.383332773	ACE	lure	n/a	n/a	n/a	1
35.415	0.333325311	ISOTOPE	lure	n/a	n/a	n/a	1
35.748	0.433326798	SEAWALL	lure	n/a	n/a	n/a	1
36.182	0.533326231	VICTOR	lure	n/a	n/a	n/a	1
36.715	0.416664479	FANFARE	lure	n/a	n/a	n/a	1
37.132	0.516655994	CONGRUENCE	lure	n/a	n/a	n/a	1
37.648	0.416668076	GENEALOGY	lure	n/a	n/a	n/a	1
38.065	0.599988913	HARPER	lure	n/a	n/a	n/a	1
38.665	0.683321268	CRUMB	lure	n/a	n/a	n/a	1
39.348	0.64999245	CHAUVINIST	lure	n/a	n/a	n/a	1
39.998	0.450040882	GENTILITY	lure	n/a	n/a	n/a	1
40.448	1.016610182	MANGO	fruit	701	2	2	1
41.465	0.416654361	SPASM	lure	n/a	n/a	n/a	1
41.882	0.616658204	SHIPWRECK	lure	n/a	n/a	n/a	1
42.498	0.683329045	WHOOPEE	lure	n/a	n/a	n/a	1
43.182	0.666654665	SINCERITY	lure	n/a	n/a	n/a	1
43.848	0.516660784	HOOF	lure	n/a	n/a	n/a	1
44.365	0.69999196	HATCHERY	lure	n/a	n/a	n/a	1
45.065	0.533322041	COMEDIAN	lure	n/a	n/a	n/a	1
45.598	0.433335378	TOOTHPICK	lure	n/a	n/a	n/a	1
46.031	0.566657829	SINGER	lure	n/a	n/a	n/a	1
46.598	0.64998514	RIBBON	lure	n/a	n/a	n/a	1
47.248	0.716656353	AIRWAY	lure	n/a	n/a	n/a	1
47.965	0.433327659	SHRUBBERY	lure	n/a	n/a	n/a	1
48.398	0.61666249	BASKET	short	n/a	n/a	n/a	1
49.015	0.749986691	BROWNSTONE	lure	n/a	n/a	n/a	1
49.765	0.699989582	BASEMAN	lure	n/a	n/a	n/a	1
50.465	0.799993774	WHACKER	lure	n/a	n/a	n/a	1
51.265	0.736016691	THRUSTER	lure	n/a	n/a	n/a	1
52.001	0.563966382	LOGARITHM	lure	n/a	n/a	n/a	1
52.565	0.683327697	GRATITUDE	lure	n/a	n/a	n/a	1
53.248	0.449985289	GRADUATION	lure	n/a	n/a	n/a	1
53.698	0.433335141	FIN	lure	n/a	n/a	n/a	1
54.131	0.399988626	TADPOLE	lure	n/a	n/a	n/a	1
54.531	0.633327344	BINGO	lure	n/a	n/a	n/a	1
55.165	0.483322591	DOLLY	lure	n/a	n/a	n/a	1
55.648	0.566709092	GIN	lure	n/a	n/a	n/a	1
56.215	0.51661366	PUNISHMENT	lure	n/a	n/a	n/a	1
56.731	1.016700333	BLUEBERRY	fruit	610	2	2	1
57.748	0.550399008	SUCROSE	lure	n/a	n/a	n/a	1
58.298	0.382870505	PROVINCE	lure	n/a	n/a	n/a	1
58.681	0.566659057	EXCERPT	lure	n/a	n/a	n/a	1
59.248	0.666664361	PARLOR	lure	n/a	n/a	n/a	1
59.915	0.483322012	EGGHEAD	lure	n/a	n/a	n/a	1
60.398	0.683322307	EPIDEMIC	lure	n/a	n/a	n/a	1
61.081	0.666662141	TWISTER	lure	n/a	n/a	n/a	1
61.748	0.449993528	INJUNCTION	lure	n/a	n/a	n/a	1
62.198	0.516659432	VASE	lure	n/a	n/a	n/a	1
62.715	0.449991387	GLOOM	lure	n/a	n/a	n/a	1
63.165	0.43332627	RABBI	lure	n/a	n/a	n/a	1
63.598	0.749996553	ACTOR	lure	n/a	n/a	n/a	1
64.348	0.566656994	CAUSEWAY	lure	n/a	n/a	n/a	1
64.915	2.016635779	FIDDLE	long	n/a	n/a	n/a	1
66.931	0.699993357	ADVISOR	lure	n/a	n/a	n/a	1
67.631	0.719290112	STERNUM	lure	n/a	n/a	n/a	1
68.35	0.497356541	MEDICATION	lure	n/a	n/a	n/a	1
68.848	0.350001537	STALAGMITE	lure	n/a	n/a	n/a	1
69.198	0.616657899	FAD	lure	n/a	n/a	n/a	1
69.814	0.683319476	LIP	lure	n/a	n/a	n/a	1
70.498	0.583325523	COMPONENT	lure	n/a	n/a	n/a	1
71.081	0.349998836	LADY	lure	n/a	n/a	n/a	1
71.431	0.549991058	REMOVER	lure	n/a	n/a	n/a	1
71.981	0.733323287	TERRACOTTA	lure	n/a	n/a	n/a	1
72.714	0.666656654	FORMALITY	lure	n/a	n/a	n/a	1
73.381	1.020036774	LEMON	fruit	800	2	2	1
74.401	0.613274066	AVOCATION	lure	n/a	n/a	n/a	1
75.014	0.549996393	PURGATORY	lure	n/a	n/a	n/a	1
75.564	0.683323459	DIALOGUE	lure	n/a	n/a	n/a	1
76.248	0.433325956	STARLIGHT	lure	n/a	n/a	n/a	1
76.681	0.633323338	DELEGATION	lure	n/a	n/a	n/a	1
77.314	0.749989008	OBSTACLE	lure	n/a	n/a	n/a	1
78.064	0.633330749	ARROWHEAD	lure	n/a	n/a	n/a	1
78.698	0.64998922	TRUANCY	lure	n/a	n/a	n/a	1
79.348	0.566654764	PHOTO	lure	n/a	n/a	n/a	1
79.914	0.383329931	MARL	lure	n/a	n/a	n/a	1
80.298	0.583327784	SPOOF	lure	n/a	n/a	n/a	1
80.881	0.61665604	ERRAND	lure	n/a	n/a	n/a	1
81.498	0.416719305	CRUDE	lure	n/a	n/a	n/a	1
81.914	0.616602683	POLISH	short	n/a	n/a	n/a	1
82.531	0.749987399	GROVE	lure	n/a	n/a	n/a	1
83.281	0.349996502	EARTHQUAKE	lure	n/a	n/a	n/a	1
83.631	0.716658805	GLORY	lure	n/a	n/a	n/a	1
84.348	0.483326021	THEOREM	lure	n/a	n/a	n/a	1
84.831	0.749988581	DIVIDER	lure	n/a	n/a	n/a	1
85.581	0.516657186	DETECTIVE	lure	n/a	n/a	n/a	1
86.098	0.36666574	WORKDAY	lure	n/a	n/a	n/a	1
86.464	0.383327428	SUBSTRATE	lure	n/a	n/a	n/a	1
86.848	0.699992014	GRIEF	lure	n/a	n/a	n/a	1
87.548	0.416658831	ARCHERY	lure	n/a	n/a	n/a	1
87.964	0.516657075	CONFLUENCE	lure	n/a	n/a	n/a	1
88.481	0.43333356	LITER	lure	n/a	n/a	n/a	1
88.914	0.749986907	MOTIF	lure	n/a	n/a	n/a	1
89.664	0.683321114	SAWHORSE	lure	n/a	n/a	n/a	1
90.348	0.616661616	ROPE	short	n/a	n/a	n/a	1
90.964	0.749992315	UNDERLING	lure	n/a	n/a	n/a	1
91.714	0.483326507	MAPLE	lure	n/a	n/a	n/a	1
92.198	0.38332675	TELEGRAPHY	lure	n/a	n/a	n/a	1
92.581	0.683324925	CHAPERONE	lure	n/a	n/a	n/a	1
93.264	0.316701286	NEWSPRINT	lure	n/a	n/a	n/a	1
93.581	0.549950411	THERAPIST	lure	n/a	n/a	n/a	1
94.131	0.466713792	SKIMMER	lure	n/a	n/a	n/a	1
94.598	0.533324823	TUMMY	lure	n/a	n/a	n/a	1
95.131	0.516610316	GASLIGHT	lure	n/a	n/a	n/a	1
95.647	0.483329184	AQUARIUM	lure	n/a	n/a	n/a	1
96.131	0.533361225	WATERSIDE	lure	n/a	n/a	n/a	1
96.664	0.649951468	OGRE	lure	n/a	n/a	n/a	1
97.314	0.716659698	FOOTPRINT	lure	n/a	n/a	n/a	1
98.031	0.699991067	IMMENSITY	lure	n/a	n/a	n/a	1
98.731	0.616654599	MOUNTAIN	short	n/a	n/a	n/a	1
99.347	0.499995433	EXISTENCE	lure	n/a	n/a	n/a	1
99.847	0.316660651	BIRDBATH	lure	n/a	n/a	n/a	1
100.164	0.449997247	CHITCHAT	lure	n/a	n/a	n/a	1
100.614	0.399995519	GLYCEROL	lure	n/a	n/a	n/a	1
101.014	0.416662233	VISION	lure	n/a	n/a	n/a	1
101.431	0.666657816	TASSEL	lure	n/a	n/a	n/a	1
102.097	0.683321561	FLAPJACK	lure	n/a	n/a	n/a	1
102.781	0.383325604	CANDY	lure	n/a	n/a	n/a	1
103.164	0.499995403	GULLY	lure	n/a	n/a	n/a	1
103.664	0.616658823	CAMPFIRE	lure	n/a	n/a	n/a	1
104.281	0.36665777	SATIRE	lure	n/a	n/a	n/a	1
104.647	0.64999519	CHERUB	lure	n/a	n/a	n/a	1
105.297	0.649987335	ZODIAC	lure	n/a	n/a	n/a	1
105.947	0.3166693	LEGISLATOR	lure	n/a	n/a	n/a	1
106.264	0.666658012	LANDROVER	lure	n/a	n/a	n/a	1
106.931	0.616655976	COLLAR	short	n/a	n/a	n/a	1
107.547	0.466662185	LINESMAN	lure	n/a	n/a	n/a	1
108.014	0.583321409	HIGHWAY	lure	n/a	n/a	n/a	1
108.597	0.699992512	AUTO	lure	n/a	n/a	n/a	1
109.297	0.383379031	INACCURACY	lure	n/a	n/a	n/a	1
109.681	0.633274101	LIGHTNING	lure	n/a	n/a	n/a	1
110.314	0.433326199	SHELLSHOCK	lure	n/a	n/a	n/a	1
110.747	0.333382802	TRINKET	lure	n/a	n/a	n/a	1
111.081	0.316605148	RUDDER	lure	n/a	n/a	n/a	1
111.397	0.449995461	SESSION	lure	n/a	n/a	n/a	1
111.847	0.38332939	NOTHING	lure	n/a	n/a	n/a	1
112.231	0.416661623	DOER	lure	n/a	n/a	n/a	1
112.647	0.616656299	FLUORIDE	lure	n/a	n/a	n/a	1
113.264	0.633391025	BOMBSHELL	lure	n/a	n/a	n/a	1
113.897	0.433264153	BIOSPHERE	lure	n/a	n/a	n/a	1
114.331	0.599989595	TECHNOLOGY	lure	n/a	n/a	n/a	1
114.931	0.683323376	DUNE	lure	n/a	n/a	n/a	1
115.614	2.016641865	LUMBER	long	n/a	n/a	n/a	1
117.631	0.516660476	GYPSY	lure	n/a	n/a	n/a	1
118.147	0.333325689	ANTHOLOGY	lure	n/a	n/a	n/a	1
118.481	0.566661036	ORGANIST	lure	n/a	n/a	n/a	1
119.047	0.683323545	SLIPKNOT	lure	n/a	n/a	n/a	1
119.73	0.383327831	SHOPKEEPER	lure	n/a	n/a	n/a	1
120.114	0.566662371	TROPHY	lure	n/a	n/a	n/a	1
120.68	0.449993045	PROTRACTOR	lure	n/a	n/a	n/a	1
121.13	0.516657019	GIST	lure	n/a	n/a	n/a	1
121.647	0.516658821	DRUGSTORE	lure	n/a	n/a	n/a	1
122.164	0.716658268	ORCHARD	lure	n/a	n/a	n/a	1
122.88	0.716658929	HUTCH	lure	n/a	n/a	n/a	1
123.597	0.483322931	QUARRYMEN	lure	n/a	n/a	n/a	1
124.08	0.616660004	IODINE	short	n/a	n/a	n/a	1
124.697	0.416714963	NEAPOLITAN	lure	n/a	n/a	n/a	1
125.114	0.533272884	GARMENT	lure	n/a	n/a	n/a	1
125.647	0.56666184	DRAWER	lure	n/a	n/a	n/a	1
126.214	0.599987027	INSIDER	lure	n/a	n/a	n/a	1
126.814	0.466665079	GENERATOR	lure	n/a	n/a	n/a	1
127.28	0.549991651	WRECKAGE	lure	n/a	n/a	n/a	1
127.83	0.499993953	COLUMN	lure	n/a	n/a	n/a	1
128.33	0.499993116	TRADITION	lure	n/a	n/a	n/a	1
128.83	0.533328629	BUN	lure	n/a	n/a	n/a	1
129.364	0.54999075	POT	lure	n/a	n/a	n/a	1
129.914	0.583328282	SHAW	lure	n/a	n/a	n/a	1
130.497	0.516653408	CURVATURE	lure	n/a	n/a	n/a	1
131.014	0.583327853	WALKOVER	lure	n/a	n/a	n/a	1
131.597	0.599989548	OUTFIT	lure	n/a	n/a	n/a	1
132.197	2.016639921	CURTAIN	long	n/a	n/a	n/a	1
134.214	0.416661549	POSTSCRIPT	lure	n/a	n/a	n/a	1
134.63	0.449992233	ICEPICK	lure	n/a	n/a	n/a	1
135.08	0.66666063	FLATTERY	lure	n/a	n/a	n/a	1
135.747	0.483325922	DECORUM	lure	n/a	n/a	n/a	1
136.23	0.749989406	CUPFUL	lure	n/a	n/a	n/a	1
136.98	0.566659878	HAREM	lure	n/a	n/a	n/a	1
137.547	0.39999788	CABOOSE	lure	n/a	n/a	n/a	1
137.947	0.350043127	DEPARTURE	lure	n/a	n/a	n/a	1
138.297	0.566609228	PINGPONG	lure	n/a	n/a	n/a	1
138.864	0.599988191	GUARDSMAN	lure	n/a	n/a	n/a	1
139.464	0.716661519	COLLIE	lure	n/a	n/a	n/a	1
140.18	0.68748745	OBJECT	lure	n/a	n/a	n/a	1
140.868	2.012471673	DISTRICT	long	n/a	n/a	n/a	1
142.88	0.499996077	CHROMOSOME	lure	n/a	n/a	n/a	1
143.38	0.499991552	DEMOCRACY	lure	n/a	n/a	n/a	1
143.88	0.499993435	FALLACY	lure	n/a	n/a	n/a	1
144.38	0.583326004	NEGOTIATOR	lure	n/a	n/a	n/a	1
144.963	0.749991638	TEAMMATE	lure	n/a	n/a	n/a	1
145.713	0.483330067	INITIATION	lure	n/a	n/a	n/a	1
146.197	0.637570926	SUBTLETY	lure	n/a	n/a	n/a	1
146.834	0.645742598	TOOTH	lure	n/a	n/a	n/a	1
147.48	0.716656639	LONER	lure	n/a	n/a	n/a	1
148.197	0.366662468	DEVIATION	lure	n/a	n/a	n/a	1
148.563	0.616654664	TESTER	lure	n/a	n/a	n/a	1
149.18	1.017632521	RASPBERRY	fruit	649	2	2	1
150.198	0.382348906	ANNOYANCE	lure	n/a	n/a	n/a	1
150.58	0.383326842	BUSH	lure	n/a	n/a	n/a	1
150.963	0.366665044	AORTA	lure	n/a	n/a	n/a	1
151.33	0.449991044	LOADER	lure	n/a	n/a	n/a	1
151.78	0.699994722	SABBATICAL	lure	n/a	n/a	n/a	1
152.48	0.586011365	GEM	lure	n/a	n/a	n/a	1
153.066	0.463973785	BUCKSHOT	lure	n/a	n/a	n/a	1
153.53	0.649989377	DISRUPTION	lure	n/a	n/a	n/a	1
154.18	0.566658644	BOUT	lure	n/a	n/a	n/a	1
154.747	0.416663636	SLINGSHOT	lure	n/a	n/a	n/a	1
155.163	0.770045863	VISITATION	lure	n/a	n/a	n/a	1
155.933	0.496603808	VIGILANTE	lure	n/a	n/a	n/a	1
156.43	0.616659675	GRAVITY	lure	n/a	n/a	n/a	1
157.047	0.699989362	REHASH	lure	n/a	n/a	n/a	1
157.747	2.016641281	SUDS	long	n/a	n/a	n/a	1
159.763	0.433328784	CYCLIST	lure	n/a	n/a	n/a	1
160.197	0.533318997	INVESTOR	lure	n/a	n/a	n/a	1
160.73	0.366666742	ZONE	lure	n/a	n/a	n/a	1
161.097	0.599994447	MEDICINE	lure	n/a	n/a	n/a	1
161.697	0.333363727	MOVEMENT	lure	n/a	n/a	n/a	1
162.03	0.383335368	BEHALF	lure	n/a	n/a	n/a	1
162.413	0.333325045	ANONYMITY	lure	n/a	n/a	n/a	1
162.747	0.516617567	JEALOUSY	lure	n/a	n/a	n/a	1
163.263	0.333327102	SPOONFUL	lure	n/a	n/a	n/a	1
163.597	0.516657745	WEDLOCK	lure	n/a	n/a	n/a	1
164.113	0.716657662	AMPLITUDE	lure	n/a	n/a	n/a	1
164.83	0.399996584	BRANDY	lure	n/a	n/a	n/a	1
165.23	0.483364931	RASCAL	lure	n/a	n/a	n/a	1
165.713	0.649954263	SHOPPER	lure	n/a	n/a	n/a	1
166.363	2.016636679	HILL	long	n/a	n/a	n/a	1
168.38	0.66666239	WAITER	lure	n/a	n/a	n/a	1
169.046	0.383325921	NUB	lure	n/a	n/a	n/a	1
169.43	0.716657234	BLOOMER	lure	n/a	n/a	n/a	1
170.146	0.449995166	NORTHERNER	lure	n/a	n/a	n/a	1
170.596	0.333326087	GOON	lure	n/a	n/a	n/a	1
170.93	0.333367488	LIQUIDITY	lure	n/a	n/a	n/a	1
171.263	0.366620522	GRANDSON	lure	n/a	n/a	n/a	1
171.63	0.549995218	LEGALISM	lure	n/a	n/a	n/a	1
172.18	0.699990433	CAMEL	lure	n/a	n/a	n/a	1
172.88	0.433332807	HAYWIRE	lure	n/a	n/a	n/a	1
173.313	0.533325995	COVERAGE	lure	n/a	n/a	n/a	1
173.846	0.61665291	WAGON	lure	n/a	n/a	n/a	1
174.463	0.666660527	TAVERN	lure	n/a	n/a	n/a	1
175.13	0.616654607	CHALK	short	n/a	n/a	n/a	1
175.746	0.533327841	TABLOID	lure	n/a	n/a	n/a	1
176.28	0.633420926	ALABASTER	lure	n/a	n/a	n/a	1
176.913	0.71656543	SOLIDARITY	lure	n/a	n/a	n/a	1
177.63	0.316658079	FUNFAIR	lure	n/a	n/a	n/a	1
177.946	0.583324904	LAMPPOST	lure	n/a	n/a	n/a	1
178.53	0.733327	TRANSIENCE	lure	n/a	n/a	n/a	1
179.263	0.649989412	HANDMAIDEN	lure	n/a	n/a	n/a	1
179.913	0.61665885	REVELRY	lure	n/a	n/a	n/a	1
180.53	0.749989279	SLACKER	lure	n/a	n/a	n/a	1
181.28	0.649990959	WAISTBAND	lure	n/a	n/a	n/a	1
181.93	0.3666619	KINGDOM	lure	n/a	n/a	n/a	1
182.296	0.583325193	PORTHOLE	lure	n/a	n/a	n/a	1
182.88	0.466659821	RIVERSIDE	lure	n/a	n/a	n/a	1
183.346	1.016652761	PEAR	fruit	795	2	2	1
184.363	0.733324032	NEWSSTAND	lure	n/a	n/a	n/a	1
185.096	0.349994014	OSCILLATOR	lure	n/a	n/a	n/a	1
185.446	0.649994369	MIDSUMMER	lure	n/a	n/a	n/a	1
186.096	0.56665831	CROSSBAR	lure	n/a	n/a	n/a	1
186.663	0.533326998	CONTROLLER	lure	n/a	n/a	n/a	1
187.196	0.66666	DIGNITARY	lure	n/a	n/a	n/a	1
187.863	0.766653296	FREEBOARD	lure	n/a	n/a	n/a	1
188.63	0.599993949	HERON	lure	n/a	n/a	n/a	1
189.23	0.566655401	REAPER	lure	n/a	n/a	n/a	1
189.796	0.516661035	ALLUSION	lure	n/a	n/a	n/a	1
190.313	0.583326045	DAIRYMAN	lure	n/a	n/a	n/a	1
190.896	0.666654291	OMELET	lure	n/a	n/a	n/a	1
191.563	2.016642305	MAGNET	long	n/a	n/a	n/a	1
193.579	0.699992468	VERDICT	lure	n/a	n/a	n/a	1
194.279	0.716656953	UMBRELLA	lure	n/a	n/a	n/a	1
194.996	0.716653027	POWERBOAT	lure	n/a	n/a	n/a	1
195.713	0.41666526	REPUTATION	lure	n/a	n/a	n/a	1
196.129	0.700753557	DISCUSSION	lure	n/a	n/a	n/a	1
196.83	0.682560841	ORTHODOXY	lure	n/a	n/a	n/a	1
197.513	0.533382546	THRESHOLD	lure	n/a	n/a	n/a	1
198.046	0.566599389	MACHINIST	lure	n/a	n/a	n/a	1
198.613	0.516659038	HEDONIST	lure	n/a	n/a	n/a	1
199.129	0.383330927	FLORIST	lure	n/a	n/a	n/a	1
199.513	0.616659081	DOME	short	n/a	n/a	n/a	1
200.129	0.616657711	SURVIVOR	lure	n/a	n/a	n/a	1
200.746	0.533323981	SCOPE	lure	n/a	n/a	n/a	1
201.279	0.666656995	COLLUSION	lure	n/a	n/a	n/a	1
201.946	0.583327782	COWARD	lure	n/a	n/a	n/a	1
202.529	0.48332899	EYEWASH	lure	n/a	n/a	n/a	1
203.013	0.633321719	PLAYER	lure	n/a	n/a	n/a	1
203.646	0.733325015	HANDSTAND	lure	n/a	n/a	n/a	1
204.379	0.433329922	FIREDOG	lure	n/a	n/a	n/a	1
204.813	0.716653635	STAIRWELL	lure	n/a	n/a	n/a	1
205.529	0.600899147	SUNFISH	lure	n/a	n/a	n/a	1
206.13	0.565752684	TUCKER	lure	n/a	n/a	n/a	1
206.696	0.68332048	DIVINATION	lure	n/a	n/a	n/a	1
207.379	0.749989086	STEWARD	lure	n/a	n/a	n/a	1
208.129	1.016656276	PINEAPPLE	fruit	588	2	2	1
209.146	0.666661957	NIGHTMARE	lure	n/a	n/a	n/a	1
209.813	0.649987755	REFINERY	lure	n/a	n/a	n/a	1
210.463	0.699991338	TEASPOON	lure	n/a	n/a	n/a	1
211.163	0.633321047	STRAINER	lure	n/a	n/a	n/a	1
211.796	0.399998736	AGILITY	lure	n/a	n/a	n/a	1
212.196	0.699991913	BUTTERCUP	lure	n/a	n/a	n/a	1
212.896	0.38332696	LAPEL	lure	n/a	n/a	n/a	1
213.279	0.399990816	TWOSOME	lure	n/a	n/a	n/a	1
213.679	0.733324705	DUEL	lure	n/a	n/a	n/a	1
214.413	0.704689658	POET	lure	n/a	n/a	n/a	1
215.117	0.595291509	QUIRK	lure	n/a	n/a	n/a	1
215.713	0.433326726	READOUT	lure	n/a	n/a	n/a	1
216.146	0.349999101	CONFLICT	lure	n/a	n/a	n/a	1
216.496	0.616656598	TIRE	short	n/a	n/a	n/a	1
217.113	0.399995729	DIVERSITY	lure	n/a	n/a	n/a	1
217.513	0.454146115	BROADCLOTH	lure	n/a	n/a	n/a	1
217.967	0.612506467	MEDIA	lure	n/a	n/a	n/a	1
218.579	0.349996308	KINSFOLK	lure	n/a	n/a	n/a	1
218.929	0.616655224	PEACETIME	lure	n/a	n/a	n/a	1
219.546	0.616659348	PARAGRAPH	lure	n/a	n/a	n/a	1
220.162	0.716662814	ORIOLE	lure	n/a	n/a	n/a	1
220.879	0.383324256	JITTERBUG	lure	n/a	n/a	n/a	1
221.262	0.649992762	PACIFIER	lure	n/a	n/a	n/a	1
221.912	0.733319984	BINDER	lure	n/a	n/a	n/a	1
222.646	0.466659474	ENORMITY	lure	n/a	n/a	n/a	1
223.112	0.483330336	GODSEND	lure	n/a	n/a	n/a	1
223.596	0.616657076	MAXIMA	lure	n/a	n/a	n/a	1
224.212	0.399991625	FLOWCHART	lure	n/a	n/a	n/a	1
224.612	0.499997154	SPILLWAY	lure	n/a	n/a	n/a	1
225.112	0.683321259	COACHMAN	lure	n/a	n/a	n/a	1
225.796	0.316663105	BOYFRIEND	lure	n/a	n/a	n/a	1
226.112	0.383330041	SMOG	lure	n/a	n/a	n/a	1
226.496	n/a	PROVIDENCE	lure	n/a	n/a	n/a	1
238.012	0.733322953	VASELINE	lure	n/a	n/a	n/a	1
238.746	0.433328046	GUITAR	lure	n/a	n/a	n/a	1
239.179	0.516659998	VIVACITY	lure	n/a	n/a	n/a	1
239.696	0.566657069	CUBBYHOLE	lure	n/a	n/a	n/a	1
240.262	0.399996466	AFFIX	lure	n/a	n/a	n/a	1
240.662	0.749990544	EXTRUSION	lure	n/a	n/a	n/a	1
241.412	0.666653597	BENCH	lure	n/a	n/a	n/a	1
242.079	0.616664688	COLLAR	short	n/a	n/a	n/a	1
242.696	0.333323238	FRATERNITY	lure	n/a	n/a	n/a	1
243.029	0.433376296	UNISON	lure	n/a	n/a	n/a	1
243.462	0.733279833	FORESIGHT	lure	n/a	n/a	n/a	1
244.195	0.470851311	PORTION	lure	n/a	n/a	n/a	1
244.666	0.512520767	FOLLOWER	lure	n/a	n/a	n/a	1
245.179	0.366606959	APPLIANCE	lure	n/a	n/a	n/a	1
245.545	0.666658035	BUFFOON	lure	n/a	n/a	n/a	1
246.212	0.683323721	CINEMA	lure	n/a	n/a	n/a	1
246.895	0.649994134	TRAINER	lure	n/a	n/a	n/a	1
247.545	0.633319151	FILLER	lure	n/a	n/a	n/a	1
248.179	0.766659895	BALLPLAYER	lure	n/a	n/a	n/a	1
248.945	0.633324444	MANGER	lure	n/a	n/a	n/a	1
249.579	0.749989925	OARSMAN	lure	n/a	n/a	n/a	1
250.329	1.020287764	MULBERRY	fruit	821	2	2	1
251.349	0.396360415	PORTAL	lure	n/a	n/a	n/a	1
251.745	0.399994389	DIAPER	lure	n/a	n/a	n/a	1
252.145	0.616658063	THROTTLE	lure	n/a	n/a	n/a	1
252.762	0.349993875	PREMIERE	lure	n/a	n/a	n/a	1
253.112	0.366662345	REDCOAT	lure	n/a	n/a	n/a	1
253.479	0.56665833	GESTURE	lure	n/a	n/a	n/a	1
254.045	0.733325273	EXPORT	lure	n/a	n/a	n/a	1
254.779	0.549993664	MINDER	lure	n/a	n/a	n/a	1
255.329	0.483323634	SHEET	lure	n/a	n/a	n/a	1
255.812	0.699992597	JEOPARDY	lure	n/a	n/a	n/a	1
256.512	0.633326272	PSYCHO	lure	n/a	n/a	n/a	1
257.145	0.366656515	HAWKER	lure	n/a	n/a	n/a	1
257.512	0.716661563	ARITHMETIC	lure	n/a	n/a	n/a	1
258.229	0.699987084	TIDBIT	lure	n/a	n/a	n/a	1
258.929	1.016658351	ELDERBERRY	fruit	605	2	2	1
259.945	0.649986214	DETRACTOR	lure	n/a	n/a	n/a	1
260.595	0.316665347	CREDENCE	lure	n/a	n/a	n/a	1
260.912	0.649991688	REFORMER	lure	n/a	n/a	n/a	1
261.562	0.399991403	BETRAYER	lure	n/a	n/a	n/a	1
261.962	0.683324115	BERK	lure	n/a	n/a	n/a	1
262.645	0.449997593	WINDMILL	lure	n/a	n/a	n/a	1
263.095	0.566654692	GENTRY	lure	n/a	n/a	n/a	1
263.662	0.766660501	NOTEPAPER	lure	n/a	n/a	n/a	1
264.429	0.349994505	BIGAMY	lure	n/a	n/a	n/a	1
264.779	0.683321338	REFUGEE	lure	n/a	n/a	n/a	1
265.462	0.366661497	GRANNY	lure	n/a	n/a	n/a	1
265.829	0.533328626	BARBARITY	lure	n/a	n/a	n/a	1
266.362	0.366658556	EXCURSION	lure	n/a	n/a	n/a	1
266.729	0.683327722	CHRONICLE	lure	n/a	n/a	n/a	1
267.412	1.016650215	GRAPE	fruit	577	2	2	1
268.428	0.499995124	EXHALATION	lure	n/a	n/a	n/a	1
268.928	0.416661481	EGOTISM	lure	n/a	n/a	n/a	1
269.345	0.533324416	MANDIBLE	lure	n/a	n/a	n/a	1
269.878	0.69999326	OFFICE	lure	n/a	n/a	n/a	1
270.578	0.349990672	DONOR	lure	n/a	n/a	n/a	1
270.928	0.616662509	STAKEOUT	lure	n/a	n/a	n/a	1
271.545	0.449993787	ZEALOT	lure	n/a	n/a	n/a	1
271.995	0.633323501	SPORTSMEN	lure	n/a	n/a	n/a	1
272.628	0.683325293	CLAY	lure	n/a	n/a	n/a	1
273.312	0.483667191	DELICACY	lure	n/a	n/a	n/a	1
273.795	0.416319058	OIL	lure	n/a	n/a	n/a	1
274.212	0.349999588	COHORT	lure	n/a	n/a	n/a	1
274.562	0.533319666	HENCHMEN	lure	n/a	n/a	n/a	1
275.095	0.616663369	TOOTHBRUSH	lure	n/a	n/a	n/a	1
275.712	0.616653942	TIRE	short	n/a	n/a	n/a	1
276.328	0.633328801	WINTERTIME	lure	n/a	n/a	n/a	1
276.962	0.533321738	CRACKER	lure	n/a	n/a	n/a	1
277.495	0.499998592	CHEESE	lure	n/a	n/a	n/a	1
277.995	0.549988903	DEPTH	lure	n/a	n/a	n/a	1
278.545	0.583327588	TOOL	lure	n/a	n/a	n/a	1
279.128	0.699989708	DISSUASION	lure	n/a	n/a	n/a	1
279.828	0.649993068	REGGAE	lure	n/a	n/a	n/a	1
280.478	0.38332342	DOLLAR	lure	n/a	n/a	n/a	1
280.862	0.566663363	BOUNCER	lure	n/a	n/a	n/a	1
281.428	0.633320922	PLAINTIFF	lure	n/a	n/a	n/a	1
282.062	0.716664877	DIGIT	lure	n/a	n/a	n/a	1
282.778	0.449987979	ELECTOR	lure	n/a	n/a	n/a	1
283.228	0.416663709	LEAKAGE	lure	n/a	n/a	n/a	1
283.645	2.016638762	LUMBER	long	n/a	n/a	n/a	1
285.662	0.333326568	POTTER	lure	n/a	n/a	n/a	1
285.995	0.483328488	ABERRATION	lure	n/a	n/a	n/a	1
286.478	0.54999389	LACROSSE	lure	n/a	n/a	n/a	1
287.028	0.383323848	TIRADE	lure	n/a	n/a	n/a	1
287.412	0.466664567	CAMOMILE	lure	n/a	n/a	n/a	1
287.878	0.433330195	THUG	lure	n/a	n/a	n/a	1
288.312	0.68332084	DOCKSIDE	lure	n/a	n/a	n/a	1
288.995	0.566658368	PARLIAMENT	lure	n/a	n/a	n/a	1
289.562	0.39999504	BLOWER	lure	n/a	n/a	n/a	1
289.962	0.749985864	SCARECROW	lure	n/a	n/a	n/a	1
290.712	0.333332435	PAPRIKA	lure	n/a	n/a	n/a	1
291.045	0.366660599	STRATEGIST	lure	n/a	n/a	n/a	1
291.412	0.599989348	BANDWAGON	lure	n/a	n/a	n/a	1
292.012	2.016646083	HILL	long	n/a	n/a	n/a	1
294.028	0.749985595	CORRUPTION	lure	n/a	n/a	n/a	1
294.778	0.349997586	GUNPOWDER	lure	n/a	n/a	n/a	1
295.128	0.516660266	CATARACT	lure	n/a	n/a	n/a	1
295.645	0.399997277	YACHTSMAN	lure	n/a	n/a	n/a	1
296.045	0.583322004	DECORATOR	lure	n/a	n/a	n/a	1
296.628	0.383329884	SOUTHERNER	lure	n/a	n/a	n/a	1
297.011	0.366658814	DOMINO	lure	n/a	n/a	n/a	1
297.378	0.616657937	THROAT	lure	n/a	n/a	n/a	1
297.995	0.449993585	FOXHOUND	lure	n/a	n/a	n/a	1
298.445	0.666658177	COASTLINE	lure	n/a	n/a	n/a	1
299.111	0.68336491	DUCKBILL	lure	n/a	n/a	n/a	1
299.795	0.666620228	DISCRETION	lure	n/a	n/a	n/a	1
300.461	1.016648262	GOOSEBERRY	fruit	712	2	2	1
301.478	0.749992383	SNOOK	lure	n/a	n/a	n/a	1
302.228	0.350055901	INFERENCE	lure	n/a	n/a	n/a	1
302.578	0.316600365	CHUTE	lure	n/a	n/a	n/a	1
302.895	0.567608067	SAC	lure	n/a	n/a	n/a	1
303.462	0.382379065	ERUPTION	lure	n/a	n/a	n/a	1
303.845	0.433329548	MITIGATION	lure	n/a	n/a	n/a	1
304.278	0.416663722	NOVICE	lure	n/a	n/a	n/a	1
304.695	0.733320742	BLOCKHEAD	lure	n/a	n/a	n/a	1
305.428	0.416659921	BOILER	lure	n/a	n/a	n/a	1
305.845	0.466661935	PATRON	lure	n/a	n/a	n/a	1
306.311	0.349995566	TIGHTROPE	lure	n/a	n/a	n/a	1
306.661	0.616724667	SYNERGISM	lure	n/a	n/a	n/a	1
307.278	0.749924064	THORN	lure	n/a	n/a	n/a	1
308.028	0.749990765	CREWMEMBER	lure	n/a	n/a	n/a	1
308.778	0.616656617	IODINE	short	n/a	n/a	n/a	1
309.395	0.333328211	INACTIVITY	lure	n/a	n/a	n/a	1
309.728	0.366660633	SPECK	lure	n/a	n/a	n/a	1
310.095	0.533325966	COLLATION	lure	n/a	n/a	n/a	1
310.628	0.733322942	SEEDLING	lure	n/a	n/a	n/a	1
311.361	0.449994754	MESSENGER	lure	n/a	n/a	n/a	1
311.811	0.366660347	GLADE	lure	n/a	n/a	n/a	1
312.178	0.51666413	OVERLAY	lure	n/a	n/a	n/a	1
312.695	0.433324833	BLOODSTOCK	lure	n/a	n/a	n/a	1
313.128	0.716656556	IVORY	lure	n/a	n/a	n/a	1
313.845	0.633328313	DERIVATION	lure	n/a	n/a	n/a	1
314.478	0.699991406	MEANIE	lure	n/a	n/a	n/a	1
315.178	0.683321022	GROUPIE	lure	n/a	n/a	n/a	1
315.861	0.500036569	DOCKYARD	lure	n/a	n/a	n/a	1
316.361	0.416616828	ANALYZER	lure	n/a	n/a	n/a	1
316.778	2.016641761	PLANET	long	n/a	n/a	n/a	1
318.794	0.716658435	DARKROOM	lure	n/a	n/a	n/a	1
319.511	0.699989699	PLASTICITY	lure	n/a	n/a	n/a	1
320.211	0.383328625	BUCCANEER	lure	n/a	n/a	n/a	1
320.594	0.499991979	BRUISER	lure	n/a	n/a	n/a	1
321.094	0.499989605	RAPTURE	lure	n/a	n/a	n/a	1
321.594	0.533327766	PEA	lure	n/a	n/a	n/a	1
322.128	0.566662232	LOLLY	lure	n/a	n/a	n/a	1
322.694	0.433323812	TYPESCRIPT	lure	n/a	n/a	n/a	1
323.128	0.349998288	DISTENSION	lure	n/a	n/a	n/a	1
323.478	0.633321528	AGGRESSION	lure	n/a	n/a	n/a	1
324.111	0.683328534	MORNING	lure	n/a	n/a	n/a	1
324.794	0.799990579	SPITFIRE	lure	n/a	n/a	n/a	1
325.594	0.616659884	CHALK	short	n/a	n/a	n/a	1
326.211	0.633323983	CORNSTARCH	lure	n/a	n/a	n/a	1
326.844	0.349988236	CROSSWALK	lure	n/a	n/a	n/a	1
327.194	0.649997346	THEME	lure	n/a	n/a	n/a	1
327.844	0.383325903	SECULARISM	lure	n/a	n/a	n/a	1
328.228	0.499989821	BARTENDER	lure	n/a	n/a	n/a	1
328.728	0.420127132	GYRO	lure	n/a	n/a	n/a	1
329.148	0.67986235	SHORTCUT	lure	n/a	n/a	n/a	1
329.828	0.39999013	JUDGMENT	lure	n/a	n/a	n/a	1
330.228	0.799992401	BOUQUET	lure	n/a	n/a	n/a	1
331.028	0.599992728	STATISTIC	lure	n/a	n/a	n/a	1
331.628	0.434505196	TIDEWAY	lure	n/a	n/a	n/a	1
332.062	0.315480308	MISPRINT	lure	n/a	n/a	n/a	1
332.378	0.483330208	SHOWGIRL	lure	n/a	n/a	n/a	1
332.861	0.333326799	GEOLOGIST	lure	n/a	n/a	n/a	1
333.194	0.749995374	MACHINERY	lure	n/a	n/a	n/a	1
333.944	2.016640288	MAGNET	long	n/a	n/a	n/a	1
335.961	0.633323838	WHIMSY	lure	n/a	n/a	n/a	1
336.594	0.466694559	JELLYFISH	lure	n/a	n/a	n/a	1
337.061	0.433346906	GIMMICK	lure	n/a	n/a	n/a	1
337.494	0.433269988	PEDDLER	lure	n/a	n/a	n/a	1
337.928	0.599987713	CHURCHMEN	lure	n/a	n/a	n/a	1
338.528	0.4666659	PROSPECTOR	lure	n/a	n/a	n/a	1
338.994	0.316697797	TOWNSMAN	lure	n/a	n/a	n/a	1
339.311	0.666619683	LONGEVITY	lure	n/a	n/a	n/a	1
339.978	0.383330521	CRANIUM	lure	n/a	n/a	n/a	1
340.361	0.616658944	TEDDY	lure	n/a	n/a	n/a	1
340.978	0.733325855	MEMOIR	lure	n/a	n/a	n/a	1
341.711	0.733319271	ALBUM	lure	n/a	n/a	n/a	1
342.444	2.049973689	DIAL	long	n/a	n/a	n/a	1
344.494	0.3333262	PRECEPT	lure	n/a	n/a	n/a	1
344.827	0.649996933	WALKOUT	lure	n/a	n/a	n/a	1
345.477	0.616651303	BALSAM	lure	n/a	n/a	n/a	1
346.094	0.416667258	FLUTE	lure	n/a	n/a	n/a	1
346.511	0.749987389	BATHTUB	lure	n/a	n/a	n/a	1
347.261	0.68758821	RAINFALL	lure	n/a	n/a	n/a	1
347.948	0.479061008	SKATER	lure	n/a	n/a	n/a	1
348.427	0.666657089	GUMSHOE	lure	n/a	n/a	n/a	1
349.094	0.33332774	AUNT	lure	n/a	n/a	n/a	1
349.427	0.783384347	CONDUCTION	lure	n/a	n/a	n/a	1
350.211	0.46660018	AFFECTION	lure	n/a	n/a	n/a	1
350.677	0.61666236	POLISH	short	n/a	n/a	n/a	1
351.294	0.416655842	GEOMETRY	lure	n/a	n/a	n/a	1
351.711	0.449995293	CREDITOR	lure	n/a	n/a	n/a	1
352.161	0.549997823	INTRUDER	lure	n/a	n/a	n/a	1
352.711	0.566655303	PRINCE	lure	n/a	n/a	n/a	1
353.277	0.733324126	SECESSION	lure	n/a	n/a	n/a	1
354.011	0.550372371	SERMON	lure	n/a	n/a	n/a	1
354.561	0.416278492	MILKMAN	lure	n/a	n/a	n/a	1
354.977	0.449997398	CAFETERIA	lure	n/a	n/a	n/a	1
355.427	0.699986007	HAMMOCK	lure	n/a	n/a	n/a	1
356.127	0.51666176	LINEAGE	lure	n/a	n/a	n/a	1
356.644	0.749994266	LEATHER	lure	n/a	n/a	n/a	1
357.394	0.616656147	MINUTE	lure	n/a	n/a	n/a	1
358.011	0.733319236	SPECIMEN	lure	n/a	n/a	n/a	1
358.744	0.499994104	LAIR	lure	n/a	n/a	n/a	1
359.244	0.616662521	BATON	short	n/a	n/a	n/a	1
359.861	0.516659602	TIC	lure	n/a	n/a	n/a	1
360.377	0.399993933	SHOEMAKER	lure	n/a	n/a	n/a	1
360.777	0.383328756	BEAUTY	lure	n/a	n/a	n/a	1
361.161	0.733320492	PLAGIARISM	lure	n/a	n/a	n/a	1
361.894	0.449994181	HOROSCOPE	lure	n/a	n/a	n/a	1
362.344	0.716658975	TANNER	lure	n/a	n/a	n/a	1
363.061	0.466659041	HORNET	lure	n/a	n/a	n/a	1
363.527	0.383329332	FAIRGROUND	lure	n/a	n/a	n/a	1
363.911	0.683324001	SUBURB	lure	n/a	n/a	n/a	1
364.594	0.383326692	QUAD	lure	n/a	n/a	n/a	1
364.977	0.599993539	JANITOR	lure	n/a	n/a	n/a	1
365.577	0.616655932	MINSTREL	lure	n/a	n/a	n/a	1
366.194	0.599994725	SAVER	lure	n/a	n/a	n/a	1
366.794	0.499990783	PHOTON	lure	n/a	n/a	n/a	1
367.294	2.016644631	FIDDLE	long	n/a	n/a	n/a	1
369.31	0.466657849	MONOGAMY	lure	n/a	n/a	n/a	1
369.777	0.383328232	PROPENSITY	lure	n/a	n/a	n/a	1
370.16	0.38332998	SHERIFF	lure	n/a	n/a	n/a	1
370.544	0.33332276	REGULARITY	lure	n/a	n/a	n/a	1
370.877	0.716658156	PIZZERIA	lure	n/a	n/a	n/a	1
371.594	0.6333236	CONTINUITY	lure	n/a	n/a	n/a	1
372.227	0.516665986	BRILLIANCY	lure	n/a	n/a	n/a	1
372.744	0.366661336	MAXIM	lure	n/a	n/a	n/a	1
373.11	0.483323409	REMISSION	lure	n/a	n/a	n/a	1
373.594	0.486687706	ACETATE	lure	n/a	n/a	n/a	1
374.08	0.396635605	WIGHT	lure	n/a	n/a	n/a	1
374.477	0.449989581	FARCE	lure	n/a	n/a	n/a	1
374.927	0.399996956	LEGITIMACY	lure	n/a	n/a	n/a	1
375.327	2.016640946	SUDS	long	n/a	n/a	n/a	1
377.344	0.433328975	TRICKERY	lure	n/a	n/a	n/a	1
377.777	0.616656896	IMBECILE	lure	n/a	n/a	n/a	1
378.394	0.449991368	BLACKSMITH	lure	n/a	n/a	n/a	1
378.844	0.783324854	NICHE	lure	n/a	n/a	n/a	1
379.627	0.533324105	TREACHERY	lure	n/a	n/a	n/a	1
380.16	0.683329839	SEMESTER	lure	n/a	n/a	n/a	1
380.844	0.733367055	AVIATION	lure	n/a	n/a	n/a	1
381.577	0.583280533	PARASOL	lure	n/a	n/a	n/a	1
382.16	0.46665651	ARTIST	lure	n/a	n/a	n/a	1
382.627	0.453711501	LEDGE	lure	n/a	n/a	n/a	1
383.081	0.696271306	MAMMAL	lure	n/a	n/a	n/a	1
383.777	0.616659316	MOUNTAIN	short	n/a	n/a	n/a	1
384.394	0.449992924	ENTOMOLOGY	lure	n/a	n/a	n/a	1
384.844	0.633329639	MATADOR	lure	n/a	n/a	n/a	1
385.477	0.749988165	MATCHBOX	lure	n/a	n/a	n/a	1
386.227	0.66670262	COMBAT	lure	n/a	n/a	n/a	1
386.894	0.31661693	ZOOLOGY	lure	n/a	n/a	n/a	1
387.21	0.599989534	VOLATILITY	lure	n/a	n/a	n/a	1
387.81	0.616662113	FOREFATHER	lure	n/a	n/a	n/a	1
388.427	0.649988031	PHENOMENA	lure	n/a	n/a	n/a	1
389.077	0.633327936	TABLECLOTH	lure	n/a	n/a	n/a	1
389.71	0.416659636	BEATER	lure	n/a	n/a	n/a	1
390.127	0.466662241	SWINGER	lure	n/a	n/a	n/a	1
390.594	0.683383477	SPEEDBOAT	lure	n/a	n/a	n/a	1
391.277	0.616595644	POSSESSOR	lure	n/a	n/a	n/a	1
391.893	0.599992572	BLOWOUT	lure	n/a	n/a	n/a	1
392.493	0.616660562	DOME	short	n/a	n/a	n/a	1
393.11	0.333328594	SUGARLOAF	lure	n/a	n/a	n/a	1
393.443	0.683326357	SELLOUT	lure	n/a	n/a	n/a	1
394.127	0.399989247	RECTORY	lure	n/a	n/a	n/a	1
394.527	0.333331635	RUBBER	lure	n/a	n/a	n/a	1
394.86	0.749992346	PENICILLIN	lure	n/a	n/a	n/a	1
395.61	0.549988083	BRILLIANCE	lure	n/a	n/a	n/a	1
396.16	0.666661927	TORPEDO	lure	n/a	n/a	n/a	1
396.827	0.449990603	MOONSHINE	lure	n/a	n/a	n/a	1
397.277	0.683324294	CHIMNEY	lure	n/a	n/a	n/a	1
397.96	0.716656891	GUIDEBOOK	lure	n/a	n/a	n/a	1
398.677	0.404418429	ACRONYM	lure	n/a	n/a	n/a	1
399.081	0.495567382	AMENDMENT	lure	n/a	n/a	n/a	1
399.577	0.366663162	SUNFLOWER	lure	n/a	n/a	n/a	1
399.943	0.599993529	HASP	lure	n/a	n/a	n/a	1
400.543	1.016650727	MANGO	fruit	n/a	n/a	2	0
401.56	0.666698983	WHIRLPOOL	lure	229	2	n/a	0
402.227	0.699952269	GUNNER	lure	n/a	n/a	n/a	1
402.927	0.583327216	VENERATION	lure	n/a	n/a	n/a	1
403.51	0.416656871	DELL	lure	n/a	n/a	n/a	1
403.927	0.366667516	FANATICISM	lure	n/a	n/a	n/a	1
404.293	0.49999272	HORSEHAIR	lure	n/a	n/a	n/a	1
404.793	0.666658825	PRESTIGE	lure	n/a	n/a	n/a	1
405.46	0.499991981	CARTEL	lure	n/a	n/a	n/a	1
405.96	0.449992854	CHARGER	lure	n/a	n/a	n/a	1
406.41	0.366656797	SUNBONNET	lure	n/a	n/a	n/a	1
406.777	0.733327758	EXCUSE	lure	n/a	n/a	n/a	1
407.51	0.699990252	MISSY	lure	n/a	n/a	n/a	1
408.21	0.583324886	MILLENNIUM	lure	n/a	n/a	n/a	1
408.793	2.016644799	MAST	long	n/a	n/a	n/a	1
410.81	0.449990797	PAMPHLET	lure	n/a	n/a	n/a	1
411.26	0.616652662	WINDSCREEN	lure	n/a	n/a	n/a	1
411.877	0.449995364	NATIVITY	lure	n/a	n/a	n/a	1
412.327	0.550038989	APPARITION	lure	n/a	n/a	n/a	1
412.877	0.366620539	COWGIRL	lure	n/a	n/a	n/a	1
413.243	0.73332152	LACKEY	lure	n/a	n/a	n/a	1
413.977	0.416656299	TOPAZ	lure	n/a	n/a	n/a	1
414.393	0.516663863	BOWLER	lure	n/a	n/a	n/a	1
414.91	0.61665416	AUNTIE	lure	n/a	n/a	n/a	1
415.527	0.733324791	ORACLE	lure	n/a	n/a	n/a	1
416.26	0.566658914	LIFEBOAT	lure	n/a	n/a	n/a	1
416.826	0.616658582	ROPE	short	n/a	n/a	n/a	1
417.443	0.433326192	UPKEEP	lure	n/a	n/a	n/a	1
417.876	0.483330326	KIDDY	lure	n/a	n/a	n/a	1
418.36	0.516656889	PRIEST	lure	n/a	n/a	n/a	1
418.876	0.466666733	POMPOM	lure	n/a	n/a	n/a	1
419.343	0.699985303	TREND	lure	n/a	n/a	n/a	1
420.043	0.583326868	BONDHOLDER	lure	n/a	n/a	n/a	1
420.626	0.383326859	HAVEN	lure	n/a	n/a	n/a	1
421.01	0.466660587	AUDITORIUM	lure	n/a	n/a	n/a	1
421.476	0.366661307	COMEBACK	lure	n/a	n/a	n/a	1
421.843	0.63332693	BACKGROUND	lure	n/a	n/a	n/a	1
422.476	0.716656317	FACTORY	lure	n/a	n/a	n/a	1
423.193	0.420071047	KILOWATT	lure	n/a	n/a	n/a	1
423.613	0.663246691	LID	lure	n/a	n/a	n/a	1
424.276	0.73332268	MANHOOD	lure	n/a	n/a	n/a	1
425.01	0.616662294	BASKET	short	n/a	n/a	n/a	1
425.626	0.449991659	DECADENCE	lure	n/a	n/a	n/a	1
426.076	0.716656932	ETHNOLOGY	lure	n/a	n/a	n/a	1
426.793	0.699989118	FIESTA	lure	n/a	n/a	n/a	1
427.493	0.633324012	HEYDAY	lure	n/a	n/a	n/a	1
428.126	0.684527437	STRINGENCY	lure	n/a	n/a	n/a	1
428.811	0.548795542	HOMEMAKER	lure	n/a	n/a	n/a	1
429.36	0.349988341	MOWER	lure	n/a	n/a	n/a	1
429.71	0.649998062	FOXHOLE	lure	n/a	n/a	n/a	1
430.36	0.383328209	CHILI	lure	n/a	n/a	n/a	1
430.743	0.516658823	SEPARATION	lure	n/a	n/a	n/a	1
431.26	0.483324165	TUB	lure	n/a	n/a	n/a	1
431.743	0.699988737	NEWSPAPER	lure	n/a	n/a	n/a	1
432.443	0.666706951	QUICKSAND	lure	n/a	n/a	n/a	1
433.11	2.016596326	CURTAIN	long	n/a	n/a	n/a	1
435.126	0.383320521	PENINSULA	lure	n/a	n/a	n/a	1
435.51	0.666657818	EDUCATOR	lure	n/a	n/a	n/a	1
436.176	0.716656791	YOUTH	lure	n/a	n/a	n/a	1
436.893	0.516660912	SACHET	lure	n/a	n/a	n/a	1
437.41	0.73332709	DEPOSITION	lure	n/a	n/a	n/a	1
438.143	0.633321516	WOODCUTTER	lure	n/a	n/a	n/a	1
438.776	0.766717733	CATTLEMEN	lure	n/a	n/a	n/a	1
439.543	0.749933685	KNOCKOUT	lure	n/a	n/a	n/a	1
440.293	0.716650937	REDUNDANCY	lure	n/a	n/a	n/a	1
441.009	0.533325587	WOMANKIND	lure	n/a	n/a	n/a	1
441.543	1.01921599	PINEAPPLE	fruit	606	2	2	1
442.562	0.647434969	OVERTONE	lure	n/a	n/a	n/a	1
443.209	0.433326283	GREYHOUND	lure	n/a	n/a	n/a	1
443.643	0.483322662	BLOTCH	lure	n/a	n/a	n/a	1
444.126	0.499993368	RAG	lure	n/a	n/a	n/a	1
444.626	0.533328575	CONFIDENCE	lure	n/a	n/a	n/a	1
445.159	0.74998962	MOUTHFUL	lure	n/a	n/a	n/a	1
445.909	0.683320992	ENTRAPMENT	lure	n/a	n/a	n/a	1
446.593	0.466666997	AMBIGUITY	lure	n/a	n/a	n/a	1
447.059	0.583320405	TYPEFACE	lure	n/a	n/a	n/a	1
447.643	0.633367232	LAMPLIGHT	lure	n/a	n/a	n/a	1
448.276	0.583282091	ADAPTATION	lure	n/a	n/a	n/a	1
448.859	0.383329455	MODERATION	lure	n/a	n/a	n/a	1
449.243	0.583324264	MANAGEMENT	lure	n/a	n/a	n/a	1
449.826	2.016645542	DISTRICT	long	n/a	n/a	n/a	1
451.843	0.666655692	POUCH	lure	n/a	n/a	n/a	1
452.509	0.403279046	NONDRIVER	lure	n/a	n/a	n/a	1
452.913	0.650791045	FOOTHILL	lure	n/a	n/a	n/a	1
453.563	0.712569638	MISFORTUNE	lure	n/a	n/a	n/a	1
454.276	0.49999526	SOFTENER	lure	n/a	n/a	n/a	1
454.776	0.3166654	FRIDGE	lure	n/a	n/a	n/a	1
455.093	0.316655528	BIRTHDAY	lure	n/a	n/a	n/a	1
455.409	0.499999678	OPIUM	lure	n/a	n/a	n/a	1
455.909	0.521448638	STIMULI	lure	n/a	n/a	n/a	1
456.431	0.6618638	OUTCRY	lure	n/a	n/a	n/a	1
457.093	0.716655434	TRANSITION	lure	n/a	n/a	n/a	1
457.809	0.649994619	PARADOX	lure	n/a	n/a	n/a	1
458.459	0.550042197	CUTBACK	lure	n/a	n/a	n/a	1
459.009	0.549982034	BONEHEAD	lure	n/a	n/a	n/a	1
459.559	0.367588578	SLED	lure	n/a	n/a	n/a	1
459.927	0.465695225	ENAMEL	lure	n/a	n/a	n/a	1
460.393	0.616655312	DIPLOMACY	lure	n/a	n/a	n/a	1
461.009	0.699993445	CRAFTSMEN	lure	n/a	n/a	n/a	1
461.709	0.399990501	TICKER	lure	n/a	n/a	n/a	1
462.109	0.666660391	TOBACCO	lure	n/a	n/a	n/a	1
462.776	0.6166579	PHYSIOLOGY	lure	n/a	n/a	n/a	1
463.393	0.649992784	INNOVATOR	lure	n/a	n/a	n/a	1
464.043	0.333332275	HARDSHIP	lure	n/a	n/a	n/a	1
464.376	n/a	MILEAGE	lure	n/a	n/a	n/a	1