onset	duration	stim	cond	RT	resp	cresp	acc
4.039	0.583264084	COURTIER	lure	n/a	n/a	n/a	1
4.622	0.549993807	GALLERY	lure	n/a	n/a	n/a	1
5.172	0.366658792	INNOVATION	lure	n/a	n/a	n/a	1
5.539	0.699993543	ALDERMEN	lure	n/a	n/a	n/a	1
6.239	0.63332579	CONDOLENCE	lure	n/a	n/a	n/a	1
6.872	0.649990193	RELATIVISM	lure	n/a	n/a	n/a	1
7.522	0.583325353	SUGGESTION	lure	n/a	n/a	n/a	1
8.106	0.616658901	HURDLE	short	n/a	n/a	n/a	1
8.722	0.616655971	SEAPLANE	lure	n/a	n/a	n/a	1
9.339	0.433328993	MONK	lure	n/a	n/a	n/a	1
9.772	0.533320021	SAWMILL	lure	n/a	n/a	n/a	1
10.305	0.449999696	INHALER	lure	n/a	n/a	n/a	1
10.755	0.749991812	EXCISE	lure	n/a	n/a	n/a	1
11.505	0.399990758	IDEOLOGIST	lure	n/a	n/a	n/a	1
11.905	0.433327419	LOOKER	lure	n/a	n/a	n/a	1
12.339	0.433329702	SHOWDOWN	lure	n/a	n/a	n/a	1
12.772	0.483373713	CLOCK	lure	n/a	n/a	n/a	1
13.255	0.549946552	OPTIMALITY	lure	n/a	n/a	n/a	1
13.805	0.733323928	GUNMEN	lure	n/a	n/a	n/a	1
14.539	0.450051955	JUDGESHIP	lure	n/a	n/a	n/a	1
14.989	0.583301183	WORKBENCH	lure	n/a	n/a	n/a	1
15.572	0.716620795	DECORUM	lure	n/a	n/a	n/a	1
16.289	0.58332345	EMULATION	lure	n/a	n/a	n/a	1
16.872	0.616661538	HOSE	short	n/a	n/a	n/a	1
17.489	0.633318121	SPEECH	lure	n/a	n/a	n/a	1
18.122	0.549998464	TASSEL	lure	n/a	n/a	n/a	1
18.672	0.449992443	PERCENTAGE	lure	n/a	n/a	n/a	1
19.122	0.766657765	ACCESSORY	lure	n/a	n/a	n/a	1
19.889	0.38338664	THUMBTACK	lure	n/a	n/a	n/a	1
20.272	0.499930906	IMMUNITY	lure	n/a	n/a	n/a	1
20.772	0.649994411	PIPETTE	lure	n/a	n/a	n/a	1
21.422	0.53332465	LAMP	lure	n/a	n/a	n/a	1
21.955	0.666653667	WINDSCREEN	lure	n/a	n/a	n/a	1
22.622	0.333331315	EXCISION	lure	n/a	n/a	n/a	1
22.955	0.433330334	HEADWAY	lure	n/a	n/a	n/a	1
23.389	0.633322226	DOGFIGHT	lure	n/a	n/a	n/a	1
24.022	0.566663767	REPLICA	lure	n/a	n/a	n/a	1
24.589	0.3833233	TELEPATHY	lure	n/a	n/a	n/a	1
24.972	2.016645305	MARKET	long	n/a	n/a	n/a	1
26.989	0.633319617	TEMPERANCE	lure	n/a	n/a	n/a	1
27.622	0.466660403	BEE	lure	n/a	n/a	n/a	1
28.089	0.56665996	PSYCHO	lure	n/a	n/a	n/a	1
28.655	0.766658228	VAGABOND	lure	n/a	n/a	n/a	1
29.422	0.499989112	MANKIND	lure	n/a	n/a	n/a	1
29.922	0.449998303	OUTFITTER	lure	n/a	n/a	n/a	1
30.372	0.633322178	HAYWIRE	lure	n/a	n/a	n/a	1
31.005	0.333380005	VEGETATION	lure	n/a	n/a	n/a	1
31.339	0.649942224	REFRESHER	lure	n/a	n/a	n/a	1
31.989	0.583419357	TULIP	lure	n/a	n/a	n/a	1
32.572	0.633230911	EXCELLENCE	lure	n/a	n/a	n/a	1
33.205	1.01670438	CHERRY	fruit	616	2	2	1
34.222	0.533273748	BACKLASH	lure	n/a	n/a	n/a	1
34.755	0.766654724	SINKHOLE	lure	n/a	n/a	n/a	1
35.522	0.733323841	ISLE	lure	n/a	n/a	n/a	1
36.255	0.7333236	CULTURE	lure	n/a	n/a	n/a	1
36.988	0.433323825	LAUGHTER	lure	n/a	n/a	n/a	1
37.422	0.333334373	NITROGEN	lure	n/a	n/a	n/a	1
37.755	0.349992248	LAMPLIGHT	lure	n/a	n/a	n/a	1
38.105	0.366660592	CRACKER	lure	n/a	n/a	n/a	1
38.472	0.449993119	EXPERT	lure	n/a	n/a	n/a	1
38.922	0.533332123	SALESGIRL	lure	n/a	n/a	n/a	1
39.455	0.683354087	PLANNER	lure	n/a	n/a	n/a	1
40.138	0.368109343	UPTURN	lure	n/a	n/a	n/a	1
40.507	0.731839931	SPOKESMAN	lure	n/a	n/a	n/a	1
41.238	0.483326786	EMPIRICIST	lure	n/a	n/a	n/a	1
41.722	2.016640152	RAINDROP	long	n/a	n/a	n/a	1
43.738	0.366662455	NEGOTIATOR	lure	n/a	n/a	n/a	1
44.105	0.433322065	VARIANCE	lure	n/a	n/a	n/a	1
44.538	0.333334214	GREENHOUSE	lure	n/a	n/a	n/a	1
44.872	0.533330742	TENACITY	lure	n/a	n/a	n/a	1
45.405	0.533320815	ELECTOR	lure	n/a	n/a	n/a	1
45.938	0.466662721	MILE	lure	n/a	n/a	n/a	1
46.405	0.733316513	ISLANDER	lure	n/a	n/a	n/a	1
47.138	0.533330444	AUTO	lure	n/a	n/a	n/a	1
47.672	0.533328707	BRAILLE	lure	n/a	n/a	n/a	1
48.205	0.749984529	AROMA	lure	n/a	n/a	n/a	1
48.955	0.399996247	MORALITY	lure	n/a	n/a	n/a	1
49.355	0.333328098	BLIZZARD	lure	n/a	n/a	n/a	1
49.688	0.334300679	STATUE	lure	n/a	n/a	n/a	1
50.023	2.049004908	STEEL	long	n/a	n/a	n/a	1
52.072	0.466659621	SHREDDER	lure	n/a	n/a	n/a	1
52.538	0.533324334	COMPARISON	lure	n/a	n/a	n/a	1
53.072	0.583324411	TALISMAN	lure	n/a	n/a	n/a	1
53.655	0.449994418	CORRUPTER	lure	n/a	n/a	n/a	1
54.105	0.649991597	PAWNSHOP	lure	n/a	n/a	n/a	1
54.755	0.516661329	MUSKRAT	lure	n/a	n/a	n/a	1
55.272	0.583323107	VERSE	lure	n/a	n/a	n/a	1
55.855	0.383374179	GINSENG	lure	n/a	n/a	n/a	1
56.238	0.533281537	FUTURISM	lure	n/a	n/a	n/a	1
56.772	0.366658614	NEAPOLITAN	lure	n/a	n/a	n/a	1
57.138	0.550037839	EYESORE	lure	n/a	n/a	n/a	1
57.688	0.566615841	REBOUND	lure	n/a	n/a	n/a	1
58.255	1.016651273	PLUM	fruit	n/a	n/a	2	0
59.271	0.533326994	INNOCENCE	lure	n/a	n/a	n/a	1
59.805	0.383327269	CARPENTER	lure	n/a	n/a	n/a	1
60.188	0.633325886	SACRAMENT	lure	n/a	n/a	n/a	1
60.821	0.69998759	POPPER	lure	n/a	n/a	n/a	1
61.521	0.450000697	VALE	lure	n/a	n/a	n/a	1
61.971	0.583323358	NECESSITY	lure	n/a	n/a	n/a	1
62.555	0.633329239	ARMLOAD	lure	n/a	n/a	n/a	1
63.188	0.583318219	EXPONENT	lure	n/a	n/a	n/a	1
63.771	0.516663405	ALTO	lure	n/a	n/a	n/a	1
64.288	0.61665768	CROPPER	lure	n/a	n/a	n/a	1
64.905	0.449991514	ENGRAVER	lure	n/a	n/a	n/a	1
65.355	0.449994939	HOMEGROWN	lure	n/a	n/a	n/a	1
65.805	0.433326461	CHURCH	lure	n/a	n/a	n/a	1
66.238	0.616656273	CHALK	short	n/a	n/a	n/a	1
66.855	0.749990667	EYESIGHT	lure	n/a	n/a	n/a	1
67.605	0.766657917	MEATBALL	lure	n/a	n/a	n/a	1
68.371	0.399995766	JOIST	lure	n/a	n/a	n/a	1
68.771	0.433328546	PRODUCER	lure	n/a	n/a	n/a	1
69.205	0.416653294	BEEFSTEAK	lure	n/a	n/a	n/a	1
69.621	0.416667773	DETONATION	lure	n/a	n/a	n/a	1
70.038	0.733320968	TIMIDITY	lure	n/a	n/a	n/a	1
70.771	0.366660581	CLOSURE	lure	n/a	n/a	n/a	1
71.138	0.549999554	OUTCAST	lure	n/a	n/a	n/a	1
71.688	0.449986462	MAGNESIA	lure	n/a	n/a	n/a	1
72.138	0.666659046	COPYWRITER	lure	n/a	n/a	n/a	1
72.805	0.699992904	KNOCKOUT	lure	n/a	n/a	n/a	1
73.505	0.599988009	BLOWHOLE	lure	n/a	n/a	n/a	1
74.105	0.433330437	RITZ	lure	n/a	n/a	n/a	1
74.538	1.016652073	PEAR	fruit	667	2	2	1
75.555	0.633332198	PENTAMETER	lure	n/a	n/a	n/a	1
76.188	0.416653349	FADEOUT	lure	n/a	n/a	n/a	1
76.605	0.58332349	CONSONANCE	lure	n/a	n/a	n/a	1
77.188	0.383328593	CYLINDER	lure	n/a	n/a	n/a	1
77.571	0.499995923	CORRIDOR	lure	n/a	n/a	n/a	1
78.071	0.666659622	SCARF	lure	n/a	n/a	n/a	1
78.738	0.699988368	CLEMENCY	lure	n/a	n/a	n/a	1
79.438	0.799986663	LUNCHROOM	lure	n/a	n/a	n/a	1
80.238	0.499997182	MOTIVATION	lure	n/a	n/a	n/a	1
80.738	0.466654716	DOORMAN	lure	n/a	n/a	n/a	1
81.205	0.466664817	CRUSADER	lure	n/a	n/a	n/a	1
81.671	0.499986234	BUYER	lure	n/a	n/a	n/a	1
82.171	0.499996574	ENCORE	lure	n/a	n/a	n/a	1
82.671	2.01664452	COAT	long	n/a	n/a	n/a	1
84.688	0.499990793	STREAMER	lure	n/a	n/a	n/a	1
85.188	0.400050006	VASELINE	lure	n/a	n/a	n/a	1
85.588	0.499935569	AVOIDANCE	lure	n/a	n/a	n/a	1
86.088	0.633374403	CHIVALRY	lure	n/a	n/a	n/a	1
86.721	0.533272744	SCREE	lure	n/a	n/a	n/a	1
87.254	0.383616214	BORDERLAND	lure	n/a	n/a	n/a	1
87.638	0.499710325	LAMPSHADE	lure	n/a	n/a	n/a	1
88.138	0.73332428	BEACH	lure	n/a	n/a	n/a	1
88.871	0.533323624	CARAMEL	lure	n/a	n/a	n/a	1
89.404	0.73332563	COLLECTION	lure	n/a	n/a	n/a	1
90.138	0.583327368	TRANSIENCE	lure	n/a	n/a	n/a	1
90.721	0.666656529	FLIER	lure	n/a	n/a	n/a	1
91.388	2.01663852	STAKE	long	n/a	n/a	n/a	1
93.404	0.716656125	GODFATHER	lure	n/a	n/a	n/a	1
94.121	0.333325309	CHARITY	lure	n/a	n/a	n/a	1
94.454	0.399993902	TRANSPLANT	lure	n/a	n/a	n/a	1
94.854	0.749995848	SITUATION	lure	n/a	n/a	n/a	1
95.604	0.750035567	GOURMET	lure	n/a	n/a	n/a	1
96.354	0.516616194	SOLITUDE	lure	n/a	n/a	n/a	1
96.871	0.716653718	WATCHTOWER	lure	n/a	n/a	n/a	1
97.588	0.61672348	NUTHOUSE	lure	n/a	n/a	n/a	1
98.204	0.483332668	CIVILITY	lure	n/a	n/a	n/a	1
98.688	0.733247952	ADDITIVE	lure	n/a	n/a	n/a	1
99.421	0.449996081	LISTENER	lure	n/a	n/a	n/a	1
99.871	0.616659467	CLOTH	short	n/a	n/a	n/a	1
100.488	0.566697345	DANCER	lure	n/a	n/a	n/a	1
101.054	0.349957056	BEAN	lure	n/a	n/a	n/a	1
101.404	0.366662786	PEANUT	lure	n/a	n/a	n/a	1
101.771	0.516721053	OPINION	lure	n/a	n/a	n/a	1
102.288	0.666593845	COHORT	lure	n/a	n/a	n/a	1
102.954	0.699993608	RUBBLE	lure	n/a	n/a	n/a	1
103.654	0.450038729	LAKE	lure	n/a	n/a	n/a	1
104.104	0.499944822	KERCHIEF	lure	n/a	n/a	n/a	1
104.604	0.46666152	MEN	lure	n/a	n/a	n/a	1
105.071	0.466664015	TEMPTER	lure	n/a	n/a	n/a	1
105.538	0.600046104	COLLEAGUE	lure	n/a	n/a	n/a	1
106.138	0.383274009	DIPHTHERIA	lure	n/a	n/a	n/a	1
106.521	0.516660309	GATEKEEPER	lure	n/a	n/a	n/a	1
107.037	0.383371507	DRAWBRIDGE	lure	n/a	n/a	n/a	1
107.421	0.71660715	REEF	lure	n/a	n/a	n/a	1
108.137	2.016641574	TRUCK	long	n/a	n/a	n/a	1
110.154	0.583326883	AMBROSIA	lure	n/a	n/a	n/a	1
110.737	0.53332696	COBBLER	lure	n/a	n/a	n/a	1
111.271	0.749986382	CONSULATE	lure	n/a	n/a	n/a	1
112.021	0.549995825	STATEROOM	lure	n/a	n/a	n/a	1
112.571	0.549991378	CONCLUSION	lure	n/a	n/a	n/a	1
113.121	0.716653701	SEPARATION	lure	n/a	n/a	n/a	1
113.837	0.533328847	PROTESTER	lure	n/a	n/a	n/a	1
114.371	0.400039535	COMMUTER	lure	n/a	n/a	n/a	1
114.771	0.499947889	BONGO	lure	n/a	n/a	n/a	1
115.271	0.699991478	SUFFIX	lure	n/a	n/a	n/a	1
115.971	0.333383105	HUNK	lure	n/a	n/a	n/a	1
116.304	1.016595874	NECTARINE	fruit	709	2	2	1
117.321	0.450042225	VALLEY	lure	n/a	n/a	n/a	1
117.771	0.333279249	SEA	lure	n/a	n/a	n/a	1
118.104	0.416662019	En/aICHMENT	lure	n/a	n/a	n/a	1
118.521	0.316661468	DENTISTRY	lure	n/a	n/a	n/a	1
118.837	0.533331018	RESIDENCY	lure	n/a	n/a	n/a	1
119.371	0.549990388	BAKER	lure	n/a	n/a	n/a	1
119.921	0.416655131	POSTULATE	lure	n/a	n/a	n/a	1
120.337	0.383329242	LOCKOUT	lure	n/a	n/a	n/a	1
120.721	0.683331205	GRIFFIN	lure	n/a	n/a	n/a	1
121.404	0.453081437	NOOSE	lure	n/a	n/a	n/a	1
121.857	0.680235282	GUITARIST	lure	n/a	n/a	n/a	1
122.537	0.349995275	ADOPTION	lure	n/a	n/a	n/a	1
122.887	0.500051337	TELEGRAPHY	lure	n/a	n/a	n/a	1
123.387	0.333267888	RUG	lure	n/a	n/a	n/a	1
123.721	0.333332659	PERFORMER	lure	n/a	n/a	n/a	1
124.054	0.583319411	TRAPPER	lure	n/a	n/a	n/a	1
124.637	0.616657668	DRILL	short	n/a	n/a	n/a	1
125.254	0.736552889	OBSCENITY	lure	n/a	n/a	n/a	1
125.99	0.747571378	ABDUCTION	lure	n/a	n/a	n/a	1
126.738	0.599247048	RINK	lure	n/a	n/a	n/a	1
127.337	0.599995458	BEAST	lure	n/a	n/a	n/a	1
127.937	0.583259829	NEUTRALITY	lure	n/a	n/a	n/a	1
128.521	0.633325018	PERISCOPE	lure	n/a	n/a	n/a	1
129.154	0.483507117	SALTWATER	lure	n/a	n/a	n/a	1
129.637	0.683203794	OVERKILL	lure	n/a	n/a	n/a	1
130.321	0.549931328	METAL	lure	n/a	n/a	n/a	1
130.871	0.516660791	LIZARD	lure	n/a	n/a	n/a	1
131.387	0.566658032	RHINO	lure	n/a	n/a	n/a	1
131.954	0.533326742	SPOKESMEN	lure	n/a	n/a	n/a	1
132.487	1.017131218	MANGO	fruit	726	2	2	1
133.504	0.799511553	NEWSCAST	lure	n/a	n/a	n/a	1
134.304	0.549990712	GADGET	lure	n/a	n/a	n/a	1
134.854	0.383328621	DOGGY	lure	n/a	n/a	n/a	1
135.237	0.48332563	INFRACTION	lure	n/a	n/a	n/a	1
135.72	0.483328786	TROPHY	lure	n/a	n/a	n/a	1
136.204	0.536857465	CHORE	lure	n/a	n/a	n/a	1
136.741	0.496461291	COMPLEXITY	lure	n/a	n/a	n/a	1
137.237	0.433327264	WRIST	lure	n/a	n/a	n/a	1
137.67	0.666713611	MATINEE	lure	n/a	n/a	n/a	1
138.337	0.733269585	SHIPMENT	lure	n/a	n/a	n/a	1
139.07	0.549988349	PLUMAGE	lure	n/a	n/a	n/a	1
139.62	0.316724687	LIBERTY	lure	n/a	n/a	n/a	1
139.937	0.433270784	MIDDLEMAN	lure	n/a	n/a	n/a	1
140.37	0.483317526	PRIORITY	lure	n/a	n/a	n/a	1
140.854	0.616660216	BOTTLE	short	n/a	n/a	n/a	1
141.47	0.416663608	SILVERWARE	lure	n/a	n/a	n/a	1
141.887	0.51666166	DISCOVERER	lure	n/a	n/a	n/a	1
142.404	0.466657772	CONFIDANTE	lure	n/a	n/a	n/a	1
142.87	0.683326831	SILL	lure	n/a	n/a	n/a	1
143.554	0.466659247	DOME	lure	n/a	n/a	n/a	1
144.02	0.466660097	AVENUE	lure	n/a	n/a	n/a	1
144.487	0.600047538	SAVANNA	lure	n/a	n/a	n/a	1
145.087	0.433273321	WHALE	lure	n/a	n/a	n/a	1
145.52	0.499992583	DELL	lure	n/a	n/a	n/a	1
146.02	0.350039173	PEGBOARD	lure	n/a	n/a	n/a	1
146.37	0.683281257	REPARATION	lure	n/a	n/a	n/a	1
147.054	0.466704952	DECREASE	lure	n/a	n/a	n/a	1
147.52	0.683277473	SUBMERSION	lure	n/a	n/a	n/a	1
148.204	0.466655213	BLAZER	lure	n/a	n/a	n/a	1
148.67	2.016646434	CARD	long	n/a	n/a	n/a	1
150.687	0.700036369	INCENTIVE	lure	n/a	n/a	n/a	1
151.387	0.666655161	IMPOSITION	lure	n/a	n/a	n/a	1
152.054	0.31667505	COMMUNITY	lure	n/a	n/a	n/a	1
152.37	0.733311585	INNKEEPER	lure	n/a	n/a	n/a	1
153.104	0.716610099	DISPARITY	lure	n/a	n/a	n/a	1
153.82	0.449993075	ANTENNA	lure	n/a	n/a	n/a	1
154.27	0.583326937	FIREPLACE	lure	n/a	n/a	n/a	1
154.854	0.766657145	EXPOSITION	lure	n/a	n/a	n/a	1
155.62	0.466657448	ACTIVIST	lure	n/a	n/a	n/a	1
156.087	0.38332934	QUEST	lure	n/a	n/a	n/a	1
156.47	0.516659257	WORD	lure	n/a	n/a	n/a	1
156.987	0.616658006	MALLET	short	n/a	n/a	n/a	1
157.603	0.399995577	LUMBERYARD	lure	n/a	n/a	n/a	1
158.003	0.71665185	STARLING	lure	n/a	n/a	n/a	1
158.72	0.333333151	LAUNCHER	lure	n/a	n/a	n/a	1
159.053	0.316662312	LEGIBILITY	lure	n/a	n/a	n/a	1
159.37	0.716658477	STOREHOUSE	lure	n/a	n/a	n/a	1
160.087	0.566658341	OVATION	lure	n/a	n/a	n/a	1
160.653	0.734508184	VENTILATOR	lure	n/a	n/a	n/a	1
161.388	0.565566215	ACCURACY	lure	n/a	n/a	n/a	1
161.954	0.399900582	KNOT	lure	n/a	n/a	n/a	1
162.353	0.349998626	DOCUMENT	lure	n/a	n/a	n/a	1
162.703	0.56665782	SYMPHONY	lure	n/a	n/a	n/a	1
163.27	0.583325746	ANTIBODY	lure	n/a	n/a	n/a	1
163.853	0.38332737	BAILIFF	lure	n/a	n/a	n/a	1
164.237	0.516658417	FIREDOG	lure	n/a	n/a	n/a	1
164.753	0.699992282	SHORTCAKE	lure	n/a	n/a	n/a	1
165.453	1.016650263	ELDERBERRY	fruit	703	2	2	1
166.47	0.499993838	CHOIR	lure	n/a	n/a	n/a	1
166.97	0.749990557	SOMERSET	lure	n/a	n/a	n/a	1
167.72	0.449992789	SEDGE	lure	n/a	n/a	n/a	1
168.17	0.733325001	ASSESSMENT	lure	n/a	n/a	n/a	1
168.903	0.366662298	MALCONTENT	lure	n/a	n/a	n/a	1
169.27	0.633324675	AQUARIUM	lure	n/a	n/a	n/a	1
169.903	0.533327379	TECH	lure	n/a	n/a	n/a	1
170.437	0.516656281	POSTMEN	lure	n/a	n/a	n/a	1
170.953	0.700035813	PREFERENCE	lure	n/a	n/a	n/a	1
171.653	0.399954513	QUACKERY	lure	n/a	n/a	n/a	1
172.053	0.716652899	CHECKPOINT	lure	n/a	n/a	n/a	1
172.77	0.649992471	BULL	lure	n/a	n/a	n/a	1
173.42	0.68332117	LIMELIGHT	lure	n/a	n/a	n/a	1
174.103	0.616657619	HOOD	short	n/a	n/a	n/a	1
174.72	0.583374891	STUPIDITY	lure	n/a	n/a	n/a	1
175.303	0.316669509	BOTANIST	lure	n/a	n/a	n/a	1
175.62	0.683268141	FISHERMEN	lure	n/a	n/a	n/a	1
176.303	0.550050833	FARCE	lure	n/a	n/a	n/a	1
176.853	0.383272448	EVERYBODY	lure	n/a	n/a	n/a	1
177.237	0.633322833	GRATITUDE	lure	n/a	n/a	n/a	1
177.87	0.366664678	ALLURE	lure	n/a	n/a	n/a	1
178.237	0.600037746	ELEPHANT	lure	n/a	n/a	n/a	1
178.837	0.466612265	MARGIN	lure	n/a	n/a	n/a	1
179.303	0.683324907	DEBASEMENT	lure	n/a	n/a	n/a	1
179.987	0.583320806	HIPSTER	lure	n/a	n/a	n/a	1
180.57	0.583383255	CAMEO	lure	n/a	n/a	n/a	1
181.153	0.366609127	CORNMEAL	lure	n/a	n/a	n/a	1
181.52	0.550046431	DRAWSTRING	lure	n/a	n/a	n/a	1
182.07	2.016585689	JAIL	long	n/a	n/a	n/a	1
184.086	0.700045014	TEDDY	lure	n/a	n/a	n/a	1
184.786	0.449938509	DESCENDANT	lure	n/a	n/a	n/a	1
185.236	0.43338296	PROPAGANDA	lure	n/a	n/a	n/a	1
185.67	0.516651129	BATCH	lure	n/a	n/a	n/a	1
186.186	0.533275253	BEAK	lure	n/a	n/a	n/a	1
186.72	0.366709564	PILL	lure	n/a	n/a	n/a	1
187.086	0.316664965	GUn/aUNNER	lure	n/a	n/a	n/a	1
187.403	0.449945641	ADDITION	lure	n/a	n/a	n/a	1
187.853	0.333327582	ALLUSION	lure	n/a	n/a	n/a	1
188.186	0.350040846	STONEWORK	lure	n/a	n/a	n/a	1
188.536	0.716614177	SAGEBRUSH	lure	n/a	n/a	n/a	1
189.253	0.499991227	UNDERTAKER	lure	n/a	n/a	n/a	1
189.753	0.749992592	BREASTBONE	lure	n/a	n/a	n/a	1
190.503	2.05003736	APRON	long	n/a	n/a	n/a	1
192.553	0.699986921	FINALITY	lure	n/a	n/a	n/a	1
193.253	0.466595714	PEWTER	lure	n/a	n/a	n/a	1
193.72	0.550050038	CLOCKWORK	lure	n/a	n/a	n/a	1
194.27	0.633266817	SNOOK	lure	n/a	n/a	n/a	1
194.903	0.449995299	NOTEBOOK	lure	n/a	n/a	n/a	1
195.353	0.416717085	SCRUPLE	lure	n/a	n/a	n/a	1
195.77	0.583264853	RAPTURE	lure	n/a	n/a	n/a	1
196.353	0.450000041	RASCAL	lure	n/a	n/a	n/a	1
196.803	0.666656446	COOKOUT	lure	n/a	n/a	n/a	1
197.47	0.783320852	GUNBOAT	lure	n/a	n/a	n/a	1
198.253	0.583326804	PROTRUSION	lure	n/a	n/a	n/a	1
198.836	0.616653593	DISC	short	n/a	n/a	n/a	1
199.453	0.51709184	MUSCLEMEN	lure	n/a	n/a	n/a	1
199.97	0.716228355	OUTFIELDER	lure	n/a	n/a	n/a	1
200.686	0.499994786	POTENCY	lure	n/a	n/a	n/a	1
201.186	0.466661099	ELVER	lure	n/a	n/a	n/a	1
201.653	0.516655424	HOOF	lure	n/a	n/a	n/a	1
202.17	0.649995134	SOPHOMORE	lure	n/a	n/a	n/a	1
202.82	0.503361431	REVERENCE	lure	n/a	n/a	n/a	1
203.323	0.746618962	SECT	lure	n/a	n/a	n/a	1
204.07	0.399997184	SHEATH	lure	n/a	n/a	n/a	1
204.47	0.549990935	RESTAURANT	lure	n/a	n/a	n/a	1
205.019	0.416769587	SEGA	lure	n/a	n/a	n/a	1
205.436	0.633272655	INCIDENT	lure	n/a	n/a	n/a	1
206.07	0.49999378	MEMORANDUM	lure	n/a	n/a	n/a	1
206.57	0.449935805	HEMLOCK	lure	n/a	n/a	n/a	1
207.019	0.616661557	PORTAL	short	n/a	n/a	n/a	1
207.636	0.66671115	HERMITAGE	lure	n/a	n/a	n/a	1
208.303	0.549937048	BISCUIT	lure	n/a	n/a	n/a	1
208.853	0.549992494	DESIGNER	lure	n/a	n/a	n/a	1
209.403	0.416659727	SEAFRONT	lure	n/a	n/a	n/a	1
209.819	0.333330549	MARINER	lure	n/a	n/a	n/a	1
210.153	0.716650355	GREENHORN	lure	n/a	n/a	n/a	1
210.869	0.466667526	BEACHHEAD	lure	n/a	n/a	n/a	1
211.336	0.566655373	INKWELL	lure	n/a	n/a	n/a	1
211.903	0.483328064	IMMUNOLOGY	lure	n/a	n/a	n/a	1
212.386	0.683324709	ABBOT	lure	n/a	n/a	n/a	1
213.069	0.333330113	COUPLER	lure	n/a	n/a	n/a	1
213.403	0.683321002	STEALTH	lure	n/a	n/a	n/a	1
214.086	0.716657325	COOKIE	lure	n/a	n/a	n/a	1
214.803	0.516720116	MIDNIGHT	lure	n/a	n/a	n/a	1
215.319	2.016583165	PURSE	long	n/a	n/a	n/a	1
217.336	0.71665468	DOMICILE	lure	n/a	n/a	n/a	1
218.053	0.650049326	SUITE	lure	n/a	n/a	n/a	1
218.703	0.66664891	SOLVENCY	lure	n/a	n/a	n/a	1
219.369	0.350001178	INFANCY	lure	n/a	n/a	n/a	1
219.719	0.683267914	PRAGMATISM	lure	n/a	n/a	n/a	1
220.403	0.500053142	FATHEAD	lure	n/a	n/a	n/a	1
220.903	0.366602778	ACQUITTAL	lure	n/a	n/a	n/a	1
221.269	0.449992571	GOLDFISH	lure	n/a	n/a	n/a	1
221.719	0.6667177	CATTLE	lure	n/a	n/a	n/a	1
222.386	0.666652358	CRAFTSMEN	lure	n/a	n/a	n/a	1
223.053	0.683269418	ANACONDA	lure	n/a	n/a	n/a	1
223.736	0.350054897	JUICE	lure	n/a	n/a	n/a	1
224.086	0.316656612	PISTACHIO	lure	n/a	n/a	n/a	1
224.403	0.466605456	CULPRIT	lure	n/a	n/a	n/a	1
224.869	0.616716211	POSSESSOR	lure	n/a	n/a	n/a	1
225.486	0.333316176	WORKTABLE	lure	n/a	n/a	n/a	1
225.819	0.699945588	IMMEDIACY	lure	n/a	n/a	n/a	1
226.519	n/a	SHOWGIRL	lure	n/a	n/a	n/a	1
238.021	0.447721268	HYENA	lure	n/a	n/a	n/a	1
238.469	0.583421982	RATION	lure	n/a	n/a	n/a	1
239.052	0.71655865	EIGHTIETH	lure	n/a	n/a	n/a	1
239.769	0.49999136	CASHEW	lure	n/a	n/a	n/a	1
240.269	0.483327172	COCKATOO	lure	n/a	n/a	n/a	1
240.752	0.683326253	STEPSISTER	lure	n/a	n/a	n/a	1
241.436	0.666657165	TROTTER	lure	n/a	n/a	n/a	1
242.102	2.016639218	RAINDROP	long	n/a	n/a	n/a	1
244.119	0.53332299	BULLOCK	lure	n/a	n/a	n/a	1
244.652	0.700051706	INCEPTION	lure	n/a	n/a	n/a	1
245.352	0.433269201	TOMAHAWK	lure	n/a	n/a	n/a	1
245.786	0.649986013	STATESMEN	lure	n/a	n/a	n/a	1
246.436	0.349999305	NUTSHELL	lure	n/a	n/a	n/a	1
246.786	0.333328055	NOTION	lure	n/a	n/a	n/a	1
247.119	0.583324802	SEACOAST	lure	n/a	n/a	n/a	1
247.702	0.533371668	ENTRANCE	lure	n/a	n/a	n/a	1
248.236	0.766613031	LOBSTER	lure	n/a	n/a	n/a	1
249.002	0.483371649	EAR	lure	n/a	n/a	n/a	1
249.486	0.466615305	JUG	lure	n/a	n/a	n/a	1
249.952	0.649992612	DISC	short	n/a	n/a	n/a	1
250.602	0.433324644	LANDOWNER	lure	n/a	n/a	n/a	1
251.036	0.566660511	ADVOCACY	lure	n/a	n/a	n/a	1
251.602	0.566659085	HIDEAWAY	lure	n/a	n/a	n/a	1
252.169	0.683322664	MAST	lure	n/a	n/a	n/a	1
252.852	0.316664055	ASSONANCE	lure	n/a	n/a	n/a	1
253.169	0.449989664	VELVETEEN	lure	n/a	n/a	n/a	1
253.619	0.6166604	ROAD	lure	n/a	n/a	n/a	1
254.235	0.633324412	PRESENCE	lure	n/a	n/a	n/a	1
254.869	0.733324727	TENURE	lure	n/a	n/a	n/a	1
255.602	0.583325732	AORTA	lure	n/a	n/a	n/a	1
256.185	0.43521314	LIFETIME	lure	n/a	n/a	n/a	1
256.621	0.681432466	PROLOGUE	lure	n/a	n/a	n/a	1
257.302	0.333333403	ORDINANCE	lure	n/a	n/a	n/a	1
257.635	0.666654266	CAMPSITE	lure	n/a	n/a	n/a	1
258.302	0.616661126	HOSE	short	n/a	n/a	n/a	1
258.919	0.433326743	SCHOOLBOY	lure	n/a	n/a	n/a	1
259.352	0.533325553	ENTHUSIAST	lure	n/a	n/a	n/a	1
259.885	0.48332982	INTRICACY	lure	n/a	n/a	n/a	1
260.369	0.399994755	RULEBOOK	lure	n/a	n/a	n/a	1
260.769	0.733321374	GURU	lure	n/a	n/a	n/a	1
261.502	0.549994672	TEAMMATE	lure	n/a	n/a	n/a	1
262.052	0.399989372	REPTILE	lure	n/a	n/a	n/a	1
262.452	0.71666048	OAK	lure	n/a	n/a	n/a	1
263.169	0.599992565	CHIMPANZEE	lure	n/a	n/a	n/a	1
263.769	0.699989594	LAUREL	lure	n/a	n/a	n/a	1
264.469	0.716659382	BRUSHWOOD	lure	n/a	n/a	n/a	1
265.185	0.600033498	GRIMACE	lure	n/a	n/a	n/a	1
265.785	0.617103417	THYME	lure	n/a	n/a	n/a	1
266.402	0.316174867	SIERRA	lure	n/a	n/a	n/a	1
266.719	2.04997056	TRUCK	long	n/a	n/a	n/a	1
268.769	0.416755427	KNOWLEDGE	lure	n/a	n/a	n/a	1
269.185	0.399898217	BICYCLIST	lure	n/a	n/a	n/a	1
269.585	0.749990849	PLYWOOD	lure	n/a	n/a	n/a	1
270.335	0.333326625	REFLEX	lure	n/a	n/a	n/a	1
270.669	0.349998383	TAKEOVER	lure	n/a	n/a	n/a	1
271.019	0.63332469	WILDFIRE	lure	n/a	n/a	n/a	1
271.652	0.316661955	MOUTHWASH	lure	n/a	n/a	n/a	1
271.969	0.700035661	EPOCH	lure	n/a	n/a	n/a	1
272.669	0.549995301	BASEMAN	lure	n/a	n/a	n/a	1
273.219	0.618487122	BARKER	lure	n/a	n/a	n/a	1
273.837	0.514783875	SUSHI	lure	n/a	n/a	n/a	1
274.352	0.366663738	READOUT	lure	n/a	n/a	n/a	1
274.719	2.016636318	COAT	long	n/a	n/a	n/a	1
276.735	0.383328568	DIVIDER	lure	n/a	n/a	n/a	1
277.119	0.583324425	FIGHTER	lure	n/a	n/a	n/a	1
277.702	0.633327034	AMPHIBIAN	lure	n/a	n/a	n/a	1
278.335	0.433327428	ROSEWOOD	lure	n/a	n/a	n/a	1
278.768	0.433370066	COLORATION	lure	n/a	n/a	n/a	1
279.202	0.616613638	FEELER	lure	n/a	n/a	n/a	1
279.818	0.749986842	CONFIDANT	lure	n/a	n/a	n/a	1
280.568	0.433329695	HUSBANDRY	lure	n/a	n/a	n/a	1
281.002	0.383330412	SLINGER	lure	n/a	n/a	n/a	1
281.385	0.33332712	FIELDWORK	lure	n/a	n/a	n/a	1
281.718	0.466660819	FREELOADER	lure	n/a	n/a	n/a	1
282.185	0.699990676	GUPPY	lure	n/a	n/a	n/a	1
282.885	0.516706455	SUFFERER	lure	n/a	n/a	n/a	1
283.402	0.61661254	MALLET	short	n/a	n/a	n/a	1
284.018	0.633323645	MEDAL	lure	n/a	n/a	n/a	1
284.652	0.466665498	UTILITY	lure	n/a	n/a	n/a	1
285.118	0.600033989	MIXER	lure	n/a	n/a	n/a	1
285.718	0.366613626	FACSIMILE	lure	n/a	n/a	n/a	1
286.085	0.599994495	GRAMMAR	lure	n/a	n/a	n/a	1
286.685	0.366655134	HARLOT	lure	n/a	n/a	n/a	1
287.052	0.600055037	MISERY	lure	n/a	n/a	n/a	1
287.652	0.61664459	PRETENSE	lure	n/a	n/a	n/a	1
288.268	0.666610574	AIRFRAME	lure	n/a	n/a	n/a	1
288.935	0.733431818	COMMANDANT	lure	n/a	n/a	n/a	1
289.668	0.466554155	PHARYNX	lure	n/a	n/a	n/a	1
290.135	0.333327541	GUESSWORK	lure	n/a	n/a	n/a	1
290.468	0.649991356	INGENUITY	lure	n/a	n/a	n/a	1
291.118	0.549989539	IDENTITY	lure	n/a	n/a	n/a	1
291.668	2.016645183	JAIL	long	n/a	n/a	n/a	1
293.685	0.649990053	PROTEGEE	lure	n/a	n/a	n/a	1
294.335	0.749989689	BEHOLDER	lure	n/a	n/a	n/a	1
295.085	0.516658663	PROMENADE	lure	n/a	n/a	n/a	1
295.602	0.683325812	FAME	lure	n/a	n/a	n/a	1
296.285	0.483376856	ADULTHOOD	lure	n/a	n/a	n/a	1
296.768	0.383276312	BOWMAN	lure	n/a	n/a	n/a	1
297.152	0.366657701	PASSIVITY	lure	n/a	n/a	n/a	1
297.518	0.633329464	BLOODHOUND	lure	n/a	n/a	n/a	1
298.152	0.583321213	FIASCO	lure	n/a	n/a	n/a	1
298.735	0.716662054	UNDERTONE	lure	n/a	n/a	n/a	1
299.452	0.433326328	CENT	lure	n/a	n/a	n/a	1
299.885	1.01669826	APPLE	fruit	912	2	2	1
300.902	0.749945407	IMMODESTY	lure	n/a	n/a	n/a	1
301.652	0.649989251	TRAITOR	lure	n/a	n/a	n/a	1
302.302	0.43337592	PINWHEEL	lure	n/a	n/a	n/a	1
302.735	0.383282874	BOOKBINDER	lure	n/a	n/a	n/a	1
303.118	0.699984352	LACKEY	lure	n/a	n/a	n/a	1
303.818	0.39999859	STIGMA	lure	n/a	n/a	n/a	1
304.218	0.400057031	DEPARTURE	lure	n/a	n/a	n/a	1
304.618	0.549928903	PENNANT	lure	n/a	n/a	n/a	1
305.168	0.633325111	GLUCOSE	lure	n/a	n/a	n/a	1
305.801	0.753596539	SPIRIT	lure	n/a	n/a	n/a	1
306.555	0.717569809	SCRIMMAGE	lure	n/a	n/a	n/a	1
307.273	0.428866636	DISSONANCE	lure	n/a	n/a	n/a	1
307.701	0.666600607	REFINERY	lure	n/a	n/a	n/a	1
308.368	1.016650245	BLUEBERRY	fruit	n/a	n/a	2	0
309.385	0.749991755	GOON	lure	20	2	n/a	0
310.135	0.733380078	SCORCHER	lure	n/a	n/a	n/a	1
310.868	0.387976739	GEM	lure	n/a	n/a	n/a	1
311.256	0.531564647	GRANDCHILD	lure	n/a	n/a	n/a	1
311.788	0.634568415	INSET	lure	n/a	n/a	n/a	1
312.422	0.429139997	NECKTIE	lure	n/a	n/a	n/a	1
312.851	0.516659151	FLAGSTAFF	lure	n/a	n/a	n/a	1
313.368	0.599991964	ARTERY	lure	n/a	n/a	n/a	1
313.968	0.416661158	BREATH	lure	n/a	n/a	n/a	1
314.385	0.383329059	GUILT	lure	n/a	n/a	n/a	1
314.768	0.750047973	BROCCOLI	lure	n/a	n/a	n/a	1
315.518	0.783263181	BUFFOON	lure	n/a	n/a	n/a	1
316.301	0.583325004	BELLFLOWER	lure	n/a	n/a	n/a	1
316.885	0.6166586	PORTAL	short	n/a	n/a	n/a	1
317.501	0.366661681	ALLEGATION	lure	n/a	n/a	n/a	1
317.868	0.450113862	ORACLE	lure	n/a	n/a	n/a	1
318.318	0.749870785	STILETTO	lure	n/a	n/a	n/a	1
319.068	0.566770967	DURATION	lure	n/a	n/a	n/a	1
319.635	0.48632623	JAVELIN	lure	n/a	n/a	n/a	1
320.121	0.563629869	TREATMENT	lure	n/a	n/a	n/a	1
320.685	0.516575407	BARNACLE	lure	n/a	n/a	n/a	1
321.201	0.516659936	BRAKEMAN	lure	n/a	n/a	n/a	1
321.718	0.74998501	COINAGE	lure	n/a	n/a	n/a	1
322.468	0.483410768	EVASION	lure	n/a	n/a	n/a	1
322.951	0.683245146	TEPEE	lure	n/a	n/a	n/a	1
323.635	0.349991368	ZEAL	lure	n/a	n/a	n/a	1
323.985	0.633329519	BEAUTY	lure	n/a	n/a	n/a	1
324.618	0.54999177	PARAGON	lure	n/a	n/a	n/a	1
325.168	2.016637644	PURSE	long	n/a	n/a	n/a	1
327.184	0.433329546	BEDPOST	lure	n/a	n/a	n/a	1
327.618	0.500054706	PROJECT	lure	n/a	n/a	n/a	1
328.118	0.649991185	BELT	lure	n/a	n/a	n/a	1
328.768	0.616596748	EXTENSION	lure	n/a	n/a	n/a	1
329.384	0.433424675	WASHER	lure	n/a	n/a	n/a	1
329.818	0.366608814	YARN	lure	n/a	n/a	n/a	1
330.185	0.483284267	BOUQUET	lure	n/a	n/a	n/a	1
330.668	0.466658879	POLYNOMIAL	lure	n/a	n/a	n/a	1
331.134	0.366661972	PRONOUN	lure	n/a	n/a	n/a	1
331.501	0.366657602	GOOBER	lure	n/a	n/a	n/a	1
331.868	0.516662809	EMBROIDERY	lure	n/a	n/a	n/a	1
332.384	0.666657032	DISUSE	lure	n/a	n/a	n/a	1
333.051	0.483327553	HIKER	lure	n/a	n/a	n/a	1
333.534	2.01671316	MARKET	long	n/a	n/a	n/a	1
335.551	0.583245852	SKULLCAP	lure	n/a	n/a	n/a	1
336.134	0.433392476	JUNKIE	lure	n/a	n/a	n/a	1
336.568	0.616598713	HONEYCOMB	lure	n/a	n/a	n/a	1
337.184	0.500053613	TRICKERY	lure	n/a	n/a	n/a	1
337.684	0.716646154	CATWALK	lure	n/a	n/a	n/a	1
338.401	0.533278239	EGOTIST	lure	n/a	n/a	n/a	1
338.934	0.316757955	ADAPTER	lure	n/a	n/a	n/a	1
339.251	0.583229037	COLLOQUIUM	lure	n/a	n/a	n/a	1
339.834	0.566718844	SILK	lure	n/a	n/a	n/a	1
340.401	0.533265652	TELETYPE	lure	n/a	n/a	n/a	1
340.934	0.466704268	TRADITION	lure	n/a	n/a	n/a	1
341.401	0.633280244	KNOTHOLE	lure	n/a	n/a	n/a	1
342.034	0.616652834	HOOD	short	n/a	n/a	n/a	1
342.651	0.350064683	FUR	lure	n/a	n/a	n/a	1
343.001	0.416596489	PLAGIARIST	lure	n/a	n/a	n/a	1
343.418	0.416661369	GROUNDER	lure	n/a	n/a	n/a	1
343.834	0.483328192	MAID	lure	n/a	n/a	n/a	1
344.318	0.633318833	HASP	lure	n/a	n/a	n/a	1
344.951	0.7666608	GASOLINE	lure	n/a	n/a	n/a	1
345.718	0.333328624	BEELINE	lure	n/a	n/a	n/a	1
346.051	0.750048261	PEELER	lure	n/a	n/a	n/a	1
346.801	0.549933865	TEMPO	lure	n/a	n/a	n/a	1
347.351	0.683325731	MATCHSTICK	lure	n/a	n/a	n/a	1
348.034	0.466658416	BEAUTICIAN	lure	n/a	n/a	n/a	1
348.501	0.433326396	COWHAND	lure	n/a	n/a	n/a	1
348.934	0.350062799	TWINE	lure	n/a	n/a	n/a	1
349.284	0.583320463	SEQUEL	lure	n/a	n/a	n/a	1
349.868	0.549993496	TIRADE	lure	n/a	n/a	n/a	1
350.418	2.049969054	CARD	long	n/a	n/a	n/a	1
352.468	0.583267869	STEAMER	lure	n/a	n/a	n/a	1
353.051	0.466659857	SERPENT	lure	n/a	n/a	n/a	1
353.517	0.666654453	ROUGHRIDER	lure	n/a	n/a	n/a	1
354.184	0.549994474	SPRITE	lure	n/a	n/a	n/a	1
354.734	0.749985776	SHOWCASE	lure	n/a	n/a	n/a	1
355.484	0.566660924	HEARTACHE	lure	n/a	n/a	n/a	1
356.051	0.383328916	SCRAPBOOK	lure	n/a	n/a	n/a	1
356.434	0.516708174	STERLING	lure	n/a	n/a	n/a	1
356.951	0.583326159	SHIPPER	lure	n/a	n/a	n/a	1
357.534	0.366671456	SYMPATHY	lure	n/a	n/a	n/a	1
357.901	0.666601611	LOBBYIST	lure	n/a	n/a	n/a	1
358.567	0.616657182	CLOTH	short	n/a	n/a	n/a	1
359.184	0.583381964	SHAMMY	lure	n/a	n/a	n/a	1
359.767	0.466604431	ANOREXIA	lure	n/a	n/a	n/a	1
360.234	0.499992429	WARTHOG	lure	n/a	n/a	n/a	1
360.734	0.650047161	SUCROSE	lure	n/a	n/a	n/a	1
361.384	0.633269364	PROFANITY	lure	n/a	n/a	n/a	1
362.017	0.666657918	RIGIDITY	lure	n/a	n/a	n/a	1
362.684	0.566658137	LANDHOLDER	lure	n/a	n/a	n/a	1
363.251	0.533326542	PARAMETER	lure	n/a	n/a	n/a	1
363.784	0.499992485	INTERPLAY	lure	n/a	n/a	n/a	1
364.284	0.533326777	BOBTAIL	lure	n/a	n/a	n/a	1
364.817	0.43422772	SPHINX	lure	n/a	n/a	n/a	1
365.252	0.532425211	COWARDICE	lure	n/a	n/a	n/a	1
365.784	0.649992697	KAZOO	lure	n/a	n/a	n/a	1
366.434	0.516718803	BRAIN	lure	n/a	n/a	n/a	1
366.951	0.616597823	CHALK	short	n/a	n/a	n/a	1
367.567	0.366656814	VIGILANCE	lure	n/a	n/a	n/a	1
367.934	0.383334823	MODE	lure	n/a	n/a	n/a	1
368.317	0.516658475	WEAPOn/aY	lure	n/a	n/a	n/a	1
368.834	0.583324738	APOTHECARY	lure	n/a	n/a	n/a	1
369.417	0.616654778	OUTLET	lure	n/a	n/a	n/a	1
370.034	0.533330527	WATCHMAKER	lure	n/a	n/a	n/a	1
370.567	0.383382723	CLOUDBURST	lure	n/a	n/a	n/a	1
370.951	0.74993674	SUPERSTAR	lure	n/a	n/a	n/a	1
371.701	0.687786086	PORTRAIT	lure	n/a	n/a	n/a	1
372.388	0.412255832	INCISION	lure	n/a	n/a	n/a	1
372.801	0.649931221	PORCUPINE	lure	n/a	n/a	n/a	1
373.451	0.699985642	UPRISING	lure	n/a	n/a	n/a	1
374.151	0.783327855	BELLMAN	lure	n/a	n/a	n/a	1
374.934	0.583324732	SPECTER	lure	n/a	n/a	n/a	1
375.517	1.017096218	GRAPE	fruit	616	2	2	1
376.534	0.349552833	PUPPY	lure	n/a	n/a	n/a	1
376.884	0.616659267	ASTRODOME	lure	n/a	n/a	n/a	1
377.5	0.316656607	DECIMATION	lure	n/a	n/a	n/a	1
377.817	0.483334019	PADDLE	lure	n/a	n/a	n/a	1
378.3	0.583322077	SOAPSTONE	lure	n/a	n/a	n/a	1
378.884	0.69999044	INFLUX	lure	n/a	n/a	n/a	1
379.584	0.716657736	CONVERSION	lure	n/a	n/a	n/a	1
380.3	0.499992899	CHIMNEY	lure	n/a	n/a	n/a	1
380.8	0.549994483	YARD	lure	n/a	n/a	n/a	1
381.35	0.416653352	TOTALITY	lure	n/a	n/a	n/a	1
381.767	0.383329102	WIGWAM	lure	n/a	n/a	n/a	1
382.15	0.335529	DECEPTION	lure	n/a	n/a	n/a	1
382.486	0.514465436	TRUTH	lure	n/a	n/a	n/a	1
383	0.333328073	INSPECTOR	lure	n/a	n/a	n/a	1
383.334	0.466660616	LEUKEMIA	lure	n/a	n/a	n/a	1
383.8	2.020649198	STEEL	long	n/a	n/a	n/a	1
385.821	0.533809467	ANOMALY	lure	n/a	n/a	n/a	1
386.355	0.39554805	INSISTENCE	lure	n/a	n/a	n/a	1
386.75	0.649943404	PRINTOUT	lure	n/a	n/a	n/a	1
387.4	0.416657307	CRUSHER	lure	n/a	n/a	n/a	1
387.817	0.383334227	CHEETAH	lure	n/a	n/a	n/a	1
388.2	0.599989678	VIRTUOSITY	lure	n/a	n/a	n/a	1
388.8	0.716658319	FACTION	lure	n/a	n/a	n/a	1
389.517	0.736777789	MATURITY	lure	n/a	n/a	n/a	1
390.254	0.681563257	PROWLER	lure	n/a	n/a	n/a	1
390.935	0.548361556	HYPHEN	lure	n/a	n/a	n/a	1
391.484	0.549929482	BREATHER	lure	n/a	n/a	n/a	1
392.034	1.049993853	PINEAPPLE	fruit	643	2	2	1
393.084	0.749977104	PHYSIOLOGY	lure	n/a	n/a	n/a	1
393.834	0.349998245	CHIVE	lure	n/a	n/a	n/a	1
394.184	0.73421052	NEUROLOGY	lure	n/a	n/a	n/a	1
394.918	0.465774084	TRAVELLER	lure	n/a	n/a	n/a	1
395.384	0.583324997	DEFENCE	lure	n/a	n/a	n/a	1
395.967	0.350055957	DUDE	lure	n/a	n/a	n/a	1
396.317	0.71659244	AIRSPACE	lure	n/a	n/a	n/a	1
397.034	0.516661649	WHALER	lure	n/a	n/a	n/a	1
397.55	0.353973437	NECKLINE	lure	n/a	n/a	n/a	1
397.904	0.662736255	CONTINUITY	lure	n/a	n/a	n/a	1
398.567	0.749933983	TABERNACLE	lure	n/a	n/a	n/a	1
399.317	0.366714586	CARETAKER	lure	n/a	n/a	n/a	1
399.684	0.649987419	BRISKET	lure	n/a	n/a	n/a	1
400.334	0.616610064	DRILL	short	n/a	n/a	n/a	1
400.95	0.350045689	LIGHTBULB	lure	n/a	n/a	n/a	1
401.3	0.533275664	COVERAGE	lure	n/a	n/a	n/a	1
401.833	0.533377039	CARDIGAN	lure	n/a	n/a	n/a	1
402.367	0.399941837	PAPRIKA	lure	n/a	n/a	n/a	1
402.767	0.483327907	EXPULSION	lure	n/a	n/a	n/a	1
403.25	0.616658467	DIGNITY	lure	n/a	n/a	n/a	1
403.867	0.583323237	PAINTBRUSH	lure	n/a	n/a	n/a	1
404.45	0.466660264	WATCHMEN	lure	n/a	n/a	n/a	1
404.917	0.683329495	MEDIATOR	lure	n/a	n/a	n/a	1
405.6	0.316660394	WINDSTORM	lure	n/a	n/a	n/a	1
405.917	0.433326935	COMEDY	lure	n/a	n/a	n/a	1
406.35	0.483374708	SOLACE	lure	n/a	n/a	n/a	1
406.833	0.483278157	CRAFTER	lure	n/a	n/a	n/a	1
407.317	0.766657572	STORYLINE	lure	n/a	n/a	n/a	1
408.083	0.383324575	RIVER	lure	n/a	n/a	n/a	1
408.467	1.050052285	MULBERRY	fruit	834	2	2	1
409.517	0.716653778	FRAMER	lure	n/a	n/a	n/a	1
410.233	0.516601823	AIRFIELD	lure	n/a	n/a	n/a	1
410.75	0.366658112	SECESSION	lure	n/a	n/a	n/a	1
411.117	0.466660453	MERGER	lure	n/a	n/a	n/a	1
411.583	0.449994476	TRANSITION	lure	n/a	n/a	n/a	1
412.033	0.316663512	MISCOUNT	lure	n/a	n/a	n/a	1
412.35	0.399992584	INERTIA	lure	n/a	n/a	n/a	1
412.75	0.566661722	MANSION	lure	n/a	n/a	n/a	1
413.317	0.316717186	CRUMB	lure	n/a	n/a	n/a	1
413.633	0.516604096	PICNIC	lure	n/a	n/a	n/a	1
414.15	0.549990722	KNOCKER	lure	n/a	n/a	n/a	1
414.7	0.55005208	MARSHALL	lure	n/a	n/a	n/a	1
415.25	0.733264798	ETHYL	lure	n/a	n/a	n/a	1
415.983	0.666706769	DESK	lure	n/a	n/a	n/a	1
416.65	1.016698259	MELON	fruit	691	2	2	1
417.667	0.504668244	PARENT	lure	n/a	n/a	n/a	1
418.171	0.678569159	CAPTIVITY	lure	n/a	n/a	n/a	1
418.85	0.366646351	PROTOCOL	lure	n/a	n/a	n/a	1
419.217	0.516706557	PURPOSE	lure	n/a	n/a	n/a	1
419.733	0.783274414	MIGRATION	lure	n/a	n/a	n/a	1
420.517	0.599993352	THRONE	lure	n/a	n/a	n/a	1
421.117	0.449993942	PROTEST	lure	n/a	n/a	n/a	1
421.567	0.416662484	HOLDUP	lure	n/a	n/a	n/a	1
421.983	0.350048797	GODSON	lure	n/a	n/a	n/a	1
422.333	0.666602468	POMPOM	lure	n/a	n/a	n/a	1
423	0.683324296	TOWNSFOLK	lure	n/a	n/a	n/a	1
423.683	0.633324652	HORNPIPE	lure	n/a	n/a	n/a	1
424.317	0.683324375	SHARKSKIN	lure	n/a	n/a	n/a	1
425	2.016633534	APRON	long	n/a	n/a	n/a	1
427.016	0.416714957	HORROR	lure	n/a	n/a	n/a	1
427.433	0.666661695	THYROID	lure	n/a	n/a	n/a	1
428.1	0.416606001	BUCCANEER	lure	n/a	n/a	n/a	1
428.516	0.466662703	NAPE	lure	n/a	n/a	n/a	1
428.983	0.566659308	PENDANT	lure	n/a	n/a	n/a	1
429.55	0.39999447	NONFICTION	lure	n/a	n/a	n/a	1
429.95	0.64998595	PUMA	lure	n/a	n/a	n/a	1
430.6	0.366736573	DEVIANCE	lure	n/a	n/a	n/a	1
430.966	0.333259552	INCAPACITY	lure	n/a	n/a	n/a	1
431.3	0.333396306	LYE	lure	n/a	n/a	n/a	1
431.633	0.516591121	MEANIE	lure	n/a	n/a	n/a	1
432.15	0.583324636	CONTESTANT	lure	n/a	n/a	n/a	1
432.733	0.549993701	CORONA	lure	n/a	n/a	n/a	1
433.283	0.616661723	HURDLE	short	n/a	n/a	n/a	1
433.9	0.500114651	RAINCOAT	lure	n/a	n/a	n/a	1
434.4	0.666660601	CHECKBOOK	lure	n/a	n/a	n/a	1
435.066	0.383200184	EFFICACY	lure	n/a	n/a	n/a	1
435.45	0.349995406	DETRIMENT	lure	n/a	n/a	n/a	1
435.8	0.43332778	CARNAGE	lure	n/a	n/a	n/a	1
436.233	0.499992252	PULLBACK	lure	n/a	n/a	n/a	1
436.733	0.7333239	SUFFRAGE	lure	n/a	n/a	n/a	1
437.466	0.600755781	AUTOCRACY	lure	n/a	n/a	n/a	1
438.067	0.549289076	FIGMENT	lure	n/a	n/a	n/a	1
438.616	0.316597932	SILICA	lure	n/a	n/a	n/a	1
438.933	0.583328436	CANISTER	lure	n/a	n/a	n/a	1
439.516	0.683320553	JURY	lure	n/a	n/a	n/a	1
440.2	0.483331829	LOON	lure	n/a	n/a	n/a	1
440.683	0.466656165	MALLARD	lure	n/a	n/a	n/a	1
441.15	0.616657199	SPREE	lure	n/a	n/a	n/a	1
441.766	2.016639746	STAKE	long	n/a	n/a	n/a	1
443.783	0.618634488	PETITIONER	lure	n/a	n/a	n/a	1
444.402	0.448119819	TOPSAIL	lure	n/a	n/a	n/a	1
444.85	0.499956064	FRUGALITY	lure	n/a	n/a	n/a	1
445.35	0.599932139	MAVERICK	lure	n/a	n/a	n/a	1
445.95	0.649988271	INTIMACY	lure	n/a	n/a	n/a	1
446.6	0.46666214	CLUBHOUSE	lure	n/a	n/a	n/a	1
447.066	0.666657972	EYETEETH	lure	n/a	n/a	n/a	1
447.733	0.766655417	WATCHBAND	lure	n/a	n/a	n/a	1
448.5	0.633325316	AIRCREW	lure	n/a	n/a	n/a	1
449.133	0.566657589	TURNER	lure	n/a	n/a	n/a	1
449.7	0.583325754	LADING	lure	n/a	n/a	n/a	1
450.283	0.616657938	BOTTLE	short	n/a	n/a	n/a	1
450.899	0.466658035	NEWSSTAND	lure	n/a	n/a	n/a	1
451.366	0.483396106	NUTRIENT	lure	n/a	n/a	n/a	1
451.85	0.670837384	RETAILER	lure	n/a	n/a	n/a	1
452.52	0.412417176	FUTILITY	lure	n/a	n/a	n/a	1
452.933	0.549990757	CONTENDER	lure	n/a	n/a	n/a	1
453.483	0.733322246	COLLATERAL	lure	n/a	n/a	n/a	1
454.216	0.600054849	PAJAMA	lure	n/a	n/a	n/a	1
454.816	0.766593013	TELEGRAM	lure	n/a	n/a	n/a	1
455.583	0.733323597	BUSTLE	lure	n/a	n/a	n/a	1
456.316	0.316663722	THICKENER	lure	n/a	n/a	n/a	1
456.633	0.43332762	EPIGRAPH	lure	n/a	n/a	n/a	1
457.066	0.766650461	TITAN	lure	n/a	n/a	n/a	1
457.833	0.433331592	ECOSYSTEM	lure	n/a	n/a	n/a	1
458.266	0.633326334	POLARITY	lure	n/a	n/a	n/a	1
458.899	0.316658624	PUCK	lure	n/a	n/a	n/a	1
459.216	0.350000263	DETENTION	lure	n/a	n/a	n/a	1
459.566	0.36665402	ESPRESSO	lure	n/a	n/a	n/a	1
459.933	0.466665069	CRYSTAL	lure	n/a	n/a	n/a	1
460.399	0.583326886	FOREBODING	lure	n/a	n/a	n/a	1
460.983	0.516658688	SHOWMEN	lure	n/a	n/a	n/a	1
461.499	0.733323537	FLAX	lure	n/a	n/a	n/a	1
462.233	0.516660169	BANDAGE	lure	n/a	n/a	n/a	1
462.749	0.466658776	BONDHOLDER	lure	n/a	n/a	n/a	1
463.216	0.649988319	CHIFFON	lure	n/a	n/a	n/a	1
463.866	0.516662698	CONTINUUM	lure	n/a	n/a	n/a	1
464.383	0.466658833	POORHOUSE	lure	n/a	n/a	n/a	1
464.849	n/a	STONEWARE	lure	n/a	n/a	n/a	1