onset	duration	stim	cond	RT	resp	cresp	acc
4.039	0.449994711	ADORNMENT	lure	n/a	n/a	n/a	1
4.489	0.549994582	STARLET	lure	n/a	n/a	n/a	1
5.039	0.416654309	KETTLE	lure	n/a	n/a	n/a	1
5.455	0.500066941	HOCKEY	lure	n/a	n/a	n/a	1
5.956	0.699921698	TWOSOME	lure	n/a	n/a	n/a	1
6.655	0.467266203	HUT	lure	n/a	n/a	n/a	1
7.123	0.416056141	PAWNBROKER	lure	n/a	n/a	n/a	1
7.539	0.616657778	MALLET	short	n/a	n/a	n/a	1
8.155	0.383404277	FOXHOUND	lure	n/a	n/a	n/a	1
8.539	0.416645321	IRRITANT	lure	n/a	n/a	n/a	1
8.956	0.633264788	HENCHMEN	lure	n/a	n/a	n/a	1
9.589	0.601310603	MANAGEMENT	lure	n/a	n/a	n/a	1
10.19	0.432005559	CRYBABY	lure	n/a	n/a	n/a	1
10.622	0.399997154	ESSENCE	lure	n/a	n/a	n/a	1
11.022	0.333329809	FERTILITY	lure	n/a	n/a	n/a	1
11.355	0.383327132	UPBRINGING	lure	n/a	n/a	n/a	1
11.739	0.59999229	EQUINOX	lure	n/a	n/a	n/a	1
12.339	0.366656445	RETENTION	lure	n/a	n/a	n/a	1
12.705	0.366663526	WEREWOLF	lure	n/a	n/a	n/a	1
13.072	0.549990496	SINGER	lure	n/a	n/a	n/a	1
13.622	0.616665475	RIVERBANK	lure	n/a	n/a	n/a	1
14.239	0.733375931	RIGGER	lure	n/a	n/a	n/a	1
14.972	0.449933388	DEBT	lure	n/a	n/a	n/a	1
15.422	0.551729527	REMORSE	lure	n/a	n/a	n/a	1
15.974	0.614928727	DISC	short	n/a	n/a	n/a	1
16.589	0.566658747	DECORATION	lure	n/a	n/a	n/a	1
17.155	0.633323209	OBSTACLE	lure	n/a	n/a	n/a	1
17.789	0.499986017	DIPLOMA	lure	n/a	n/a	n/a	1
18.289	0.733327606	DOCILITY	lure	n/a	n/a	n/a	1
19.022	0.599994069	ASTROLOGY	lure	n/a	n/a	n/a	1
19.622	0.583322901	TOWNSHIP	lure	n/a	n/a	n/a	1
20.205	0.616655942	CUB	lure	n/a	n/a	n/a	1
20.822	0.733324544	LATTER	lure	n/a	n/a	n/a	1
21.555	0.449997848	COMPONENT	lure	n/a	n/a	n/a	1
22.005	0.41670973	BLOKE	lure	n/a	n/a	n/a	1
22.422	0.449944807	REPRINT	lure	n/a	n/a	n/a	1
22.872	0.349996663	ATTENTION	lure	n/a	n/a	n/a	1
23.222	0.733320482	MYSTERY	lure	n/a	n/a	n/a	1
23.955	0.666653008	PONY	lure	n/a	n/a	n/a	1
24.622	2.050051102	PURSE	long	n/a	n/a	n/a	1
26.672	0.354635754	MAESTRO	lure	n/a	n/a	n/a	1
27.027	0.399568242	CANDIDACY	lure	n/a	n/a	n/a	1
27.426	0.345710324	HOLLY	lure	n/a	n/a	n/a	1
27.772	0.333386524	FOREFRONT	lure	n/a	n/a	n/a	1
28.105	0.483268405	SMOKER	lure	n/a	n/a	n/a	1
28.589	0.566656692	WOODYARD	lure	n/a	n/a	n/a	1
29.155	0.483324503	CORNFLAKE	lure	n/a	n/a	n/a	1
29.638	0.61671656	POLO	lure	n/a	n/a	n/a	1
30.255	0.699936763	GAP	lure	n/a	n/a	n/a	1
30.955	0.399991701	ELASTICITY	lure	n/a	n/a	n/a	1
31.355	0.683319733	CHEEK	lure	n/a	n/a	n/a	1
32.038	0.566664123	POSTAGE	lure	n/a	n/a	n/a	1
32.605	0.616659713	DRILL	short	n/a	n/a	n/a	1
33.222	0.73332134	RIBBON	lure	n/a	n/a	n/a	1
33.955	0.699992487	BEEFCAKE	lure	n/a	n/a	n/a	1
34.655	0.583385551	TRIVIA	lure	n/a	n/a	n/a	1
35.238	0.583309052	INSULATION	lure	n/a	n/a	n/a	1
35.822	0.633324442	EDITOR	lure	n/a	n/a	n/a	1
36.455	0.533281469	RAISER	lure	n/a	n/a	n/a	1
36.988	0.683322373	KAYAK	lure	n/a	n/a	n/a	1
37.672	0.416662702	POSER	lure	n/a	n/a	n/a	1
38.088	0.483373884	HISTOLOGY	lure	n/a	n/a	n/a	1
38.572	0.383326182	IMAGERY	lure	n/a	n/a	n/a	1
38.955	0.616614444	PIECEWORK	lure	n/a	n/a	n/a	1
39.572	0.53536051	GESTATION	lure	n/a	n/a	n/a	1
40.107	0.431347504	MANIA	lure	n/a	n/a	n/a	1
40.538	2.01658425	COAT	long	n/a	n/a	n/a	1
42.555	0.500048354	DETECTION	lure	n/a	n/a	n/a	1
43.055	0.383271127	SPECK	lure	n/a	n/a	n/a	1
43.438	0.449992865	PENMANSHIP	lure	n/a	n/a	n/a	1
43.888	0.449994764	CAMPER	lure	n/a	n/a	n/a	1
44.338	0.616714735	RENEWAL	lure	n/a	n/a	n/a	1
44.955	0.634542239	CRATER	lure	n/a	n/a	n/a	1
45.59	0.615384909	NUMEROLOGY	lure	n/a	n/a	n/a	1
46.205	0.550052065	GATOR	lure	n/a	n/a	n/a	1
46.755	0.599991264	SAWHORSE	lure	n/a	n/a	n/a	1
47.355	0.683264218	MINUTEMAN	lure	n/a	n/a	n/a	1
48.038	0.466723182	OFFICE	lure	n/a	n/a	n/a	1
48.505	2.016579193	CARD	long	n/a	n/a	n/a	1
50.522	0.483378638	TOURNAMENT	lure	n/a	n/a	n/a	1
51.005	0.399999608	SIGNATURE	lure	n/a	n/a	n/a	1
51.405	0.316604241	AFTERSHAVE	lure	n/a	n/a	n/a	1
51.722	0.483381731	SOCIALITY	lure	n/a	n/a	n/a	1
52.205	0.749931481	YACHT	lure	n/a	n/a	n/a	1
52.955	0.333331231	BALLROOM	lure	n/a	n/a	n/a	1
53.288	0.483327275	INFUSION	lure	n/a	n/a	n/a	1
53.772	0.433370323	BEDTIME	lure	n/a	n/a	n/a	1
54.205	0.499994292	VOODOO	lure	n/a	n/a	n/a	1
54.705	0.433283767	SLED	lure	n/a	n/a	n/a	1
55.138	0.583369744	PARCHMENT	lure	n/a	n/a	n/a	1
55.722	0.516615698	PERSECUTOR	lure	n/a	n/a	n/a	1
56.238	0.616712043	PEPTIDE	lure	n/a	n/a	n/a	1
56.855	1.017901395	MANGO	fruit	759	2	2	1
57.873	0.332082718	DOE	lure	n/a	n/a	n/a	1
58.205	0.699991653	MONOLOGIST	lure	n/a	n/a	n/a	1
58.905	0.333269601	NATION	lure	n/a	n/a	n/a	1
59.238	0.350046691	ROOSTER	lure	n/a	n/a	n/a	1
59.588	0.36661016	CINNAMON	lure	n/a	n/a	n/a	1
59.955	0.616653321	PACIFIER	lure	n/a	n/a	n/a	1
60.571	0.650095708	INDIGNITY	lure	n/a	n/a	n/a	1
61.222	0.333273577	LIABILITY	lure	n/a	n/a	n/a	1
61.555	0.750000589	POLICEMEN	lure	n/a	n/a	n/a	1
62.305	0.383274049	GASMASK	lure	n/a	n/a	n/a	1
62.688	0.500052771	MENTOR	lure	n/a	n/a	n/a	1
63.188	0.58326609	SAUCE	lure	n/a	n/a	n/a	1
63.771	0.449988046	EVACUATION	lure	n/a	n/a	n/a	1
64.221	0.666661786	DOER	lure	n/a	n/a	n/a	1
64.888	0.366719971	HAIRPIECE	lure	n/a	n/a	n/a	1
65.255	2.016583626	JAIL	long	n/a	n/a	n/a	1
67.271	0.766712324	COMBUSTION	lure	n/a	n/a	n/a	1
68.038	0.466601869	GODSEND	lure	n/a	n/a	n/a	1
68.505	0.700047423	FLAGSHIP	lure	n/a	n/a	n/a	1
69.205	0.466602438	DISRESPECT	lure	n/a	n/a	n/a	1
69.671	0.5333249	SLIPPER	lure	n/a	n/a	n/a	1
70.205	0.499995142	CLINIC	lure	n/a	n/a	n/a	1
70.705	0.450041201	SANDSTONE	lure	n/a	n/a	n/a	1
71.155	0.450001024	COMPLEXION	lure	n/a	n/a	n/a	1
71.605	0.416604908	SALIVA	lure	n/a	n/a	n/a	1
72.021	0.39999668	DANDELION	lure	n/a	n/a	n/a	1
72.421	0.349993496	WHIM	lure	n/a	n/a	n/a	1
72.771	0.533327945	AFTERLIFE	lure	n/a	n/a	n/a	1
73.305	0.466657794	PROVINCE	lure	n/a	n/a	n/a	1
73.771	2.016641198	TRUCK	long	n/a	n/a	n/a	1
75.788	0.666657533	SURFBOARD	lure	n/a	n/a	n/a	1
76.455	0.433328592	KANGAROO	lure	n/a	n/a	n/a	1
76.888	0.616659307	MELANCHOLY	lure	n/a	n/a	n/a	1
77.505	0.36666025	WELDER	lure	n/a	n/a	n/a	1
77.871	0.516658627	COMMODITY	lure	n/a	n/a	n/a	1
78.388	0.383324196	DIPLOMAT	lure	n/a	n/a	n/a	1
78.771	0.649993941	FROCK	lure	n/a	n/a	n/a	1
79.421	0.33332679	BYPRODUCT	lure	n/a	n/a	n/a	1
79.754	0.416664905	PISTON	lure	n/a	n/a	n/a	1
80.171	0.766657113	ALLEGORY	lure	n/a	n/a	n/a	1
80.938	0.499992683	BLOCKAGE	lure	n/a	n/a	n/a	1
81.438	0.633323803	CROSSWORD	lure	n/a	n/a	n/a	1
82.071	0.616660179	BOTTLE	short	n/a	n/a	n/a	1
82.688	0.333326486	RECOMPENSE	lure	n/a	n/a	n/a	1
83.021	0.416660068	SWIMSUIT	lure	n/a	n/a	n/a	1
83.438	0.599988462	PUNISHMENT	lure	n/a	n/a	n/a	1
84.038	0.63332756	VAPOR	lure	n/a	n/a	n/a	1
84.671	0.649987587	TOUPEE	lure	n/a	n/a	n/a	1
85.321	0.716658322	INCUBATION	lure	n/a	n/a	n/a	1
86.038	0.699995977	GENERALITY	lure	n/a	n/a	n/a	1
86.738	0.316656261	BLOWOUT	lure	n/a	n/a	n/a	1
87.054	0.466660513	STYLE	lure	n/a	n/a	n/a	1
87.521	0.516662217	COMPULSION	lure	n/a	n/a	n/a	1
88.038	0.416663379	GUERILLA	lure	n/a	n/a	n/a	1
88.454	0.516659905	MONTH	lure	n/a	n/a	n/a	1
88.971	0.366722574	NEWSPAPER	lure	n/a	n/a	n/a	1
89.338	0.649987549	POKER	lure	n/a	n/a	n/a	1
89.988	0.700018668	PANE	lure	n/a	n/a	n/a	1
90.688	0.616572806	HOSE	short	n/a	n/a	n/a	1
91.304	0.566663338	GIRDLE	lure	n/a	n/a	n/a	1
91.871	0.601382686	TRANSLATOR	lure	n/a	n/a	n/a	1
92.472	0.615262798	COLLUSION	lure	n/a	n/a	n/a	1
93.088	0.4999968	BASKETBALL	lure	n/a	n/a	n/a	1
93.588	0.766653133	CLIENT	lure	n/a	n/a	n/a	1
94.354	0.549992747	BOARDROOM	lure	n/a	n/a	n/a	1
94.904	0.350039957	CONFLUENCE	lure	n/a	n/a	n/a	1
95.254	0.533332179	WRIGHT	lure	n/a	n/a	n/a	1
95.788	0.366626364	DELIRIUM	lure	n/a	n/a	n/a	1
96.154	0.583310459	HACKSAW	lure	n/a	n/a	n/a	1
96.738	0.683316349	LIMB	lure	n/a	n/a	n/a	1
97.421	0.383332777	COMEBACK	lure	n/a	n/a	n/a	1
97.804	0.483326747	KILT	lure	n/a	n/a	n/a	1
98.288	0.566704753	SENTRY	lure	n/a	n/a	n/a	1
98.854	0.616611254	HOOD	short	n/a	n/a	n/a	1
99.471	0.516661836	MARKER	lure	n/a	n/a	n/a	1
99.988	0.683431666	REFRACTION	lure	n/a	n/a	n/a	1
100.671	0.499886615	DIRECTORY	lure	n/a	n/a	n/a	1
101.171	0.566658529	CUTTER	lure	n/a	n/a	n/a	1
101.738	0.53332791	FOOTHILL	lure	n/a	n/a	n/a	1
102.271	0.435119521	QUOTA	lure	n/a	n/a	n/a	1
102.706	0.648198289	DROUGHT	lure	n/a	n/a	n/a	1
103.354	0.33338599	CREWMEMBER	lure	n/a	n/a	n/a	1
103.688	0.449931701	VISOR	lure	n/a	n/a	n/a	1
104.137	0.516656864	PLENITUDE	lure	n/a	n/a	n/a	1
104.654	0.750000507	BUOYANCY	lure	n/a	n/a	n/a	1
105.404	0.48332345	GLAMOR	lure	n/a	n/a	n/a	1
105.887	0.783320541	PROPORTION	lure	n/a	n/a	n/a	1
106.671	0.683326684	SPACESUIT	lure	n/a	n/a	n/a	1
107.354	1.016646842	WATERMELON	fruit	715	2	2	1
108.371	0.46688856	FAREWELL	lure	n/a	n/a	n/a	1
108.838	0.699767914	SWEETHEART	lure	n/a	n/a	n/a	1
109.537	0.716657889	PITFALL	lure	n/a	n/a	n/a	1
110.254	0.733324121	WICKERWORK	lure	n/a	n/a	n/a	1
110.987	0.633369467	FREEHOLDER	lure	n/a	n/a	n/a	1
111.621	0.549995692	RELATIVIST	lure	n/a	n/a	n/a	1
112.171	0.749940209	BRACELET	lure	n/a	n/a	n/a	1
112.921	0.683318716	DOCKYARD	lure	n/a	n/a	n/a	1
113.604	0.349997195	MEDIA	lure	n/a	n/a	n/a	1
113.954	0.499992263	ZUCCHINI	lure	n/a	n/a	n/a	1
114.454	0.433328703	STRAINER	lure	160	2	n/a	0
114.887	0.66665886	SUPPLEMENT	lure	n/a	n/a	n/a	1
115.554	0.666657607	BLEMISH	lure	n/a	n/a	n/a	1
116.221	2.01664231	STAKE	long	n/a	n/a	n/a	1
118.237	0.316657575	REFINEMENT	lure	n/a	n/a	n/a	1
118.554	0.683325236	NIGHTLIFE	lure	n/a	n/a	n/a	1
119.237	0.333330988	BATHTUB	lure	n/a	n/a	n/a	1
119.571	0.516710319	WEEK	lure	n/a	n/a	n/a	1
120.087	0.616657019	LOLLY	lure	n/a	n/a	n/a	1
120.704	0.449944581	TEAMSTER	lure	n/a	n/a	n/a	1
121.154	0.435086005	TRANSFER	lure	n/a	n/a	n/a	1
121.589	0.614897851	BANKER	lure	n/a	n/a	n/a	1
122.204	0.583325837	CRASHER	lure	n/a	n/a	n/a	1
122.787	0.333425784	NOBLEMAN	lure	n/a	n/a	n/a	1
123.121	0.583229659	SEQUIN	lure	n/a	n/a	n/a	1
123.704	0.43332585	POLITICIAN	lure	n/a	n/a	n/a	1
124.137	0.699987643	HEARTBEAT	lure	n/a	n/a	n/a	1
124.837	0.666660947	CLOTH	short	n/a	n/a	n/a	1
125.504	0.59999128	CAPITAL	lure	n/a	n/a	n/a	1
126.104	0.45009217	NOONTIME	lure	n/a	n/a	n/a	1
126.554	0.349898443	GOBLIN	lure	n/a	n/a	n/a	1
126.904	0.383327543	HANDICRAFT	lure	n/a	n/a	n/a	1
127.287	0.616713841	PERFECTION	lure	n/a	n/a	n/a	1
127.904	0.73332381	DUMPLING	lure	n/a	n/a	n/a	1
128.637	0.733268239	DRUDGERY	lure	n/a	n/a	n/a	1
129.37	0.416659823	CAPRICE	lure	n/a	n/a	n/a	1
129.787	0.700045713	SHERRY	lure	n/a	n/a	n/a	1
130.487	0.749999239	DENTIST	lure	n/a	n/a	n/a	1
131.237	0.566589628	FORBEAR	lure	n/a	n/a	n/a	1
131.804	0.433328053	BRUSHFIRE	lure	n/a	n/a	n/a	1
132.237	0.69999555	MISTLETOE	lure	n/a	n/a	n/a	1
132.937	0.58338289	CENTRALITY	lure	n/a	n/a	n/a	1
133.52	2.016582296	MARKET	long	n/a	n/a	n/a	1
135.537	0.333324669	POLYMER	lure	n/a	n/a	n/a	1
135.87	0.68339911	STRIKER	lure	n/a	n/a	n/a	1
136.554	0.366650079	LOCKSMITH	lure	n/a	n/a	n/a	1
136.92	0.549992745	OUTPORT	lure	n/a	n/a	n/a	1
137.47	0.59992838	MARMALADE	lure	n/a	n/a	n/a	1
138.07	0.437484926	FERRYMAN	lure	n/a	n/a	n/a	1
138.508	0.762502011	YESTERYEAR	lure	n/a	n/a	n/a	1
139.27	0.533393196	HAG	lure	n/a	n/a	n/a	1
139.804	0.566591514	FIANCE	lure	n/a	n/a	n/a	1
140.37	0.666717326	SACRILEGE	lure	n/a	n/a	n/a	1
141.037	0.699925228	EROSION	lure	n/a	n/a	n/a	1
141.737	2.016647976	APRON	long	n/a	n/a	n/a	1
143.754	0.549990616	INFORMANT	lure	n/a	n/a	n/a	1
144.304	0.449992524	MODESTY	lure	n/a	n/a	n/a	1
144.754	0.599991801	RETRIAL	lure	n/a	n/a	n/a	1
145.354	0.533417953	TENOR	lure	n/a	n/a	n/a	1
145.887	0.533233156	APARTMENT	lure	n/a	n/a	n/a	1
146.42	0.483328788	BOUNTY	lure	n/a	n/a	n/a	1
146.904	0.399994051	PIPER	lure	n/a	n/a	n/a	1
147.304	0.416659324	WRANGLER	lure	n/a	n/a	n/a	1
147.72	0.483329586	FIREMEN	lure	n/a	n/a	n/a	1
148.204	0.733320572	EXTRACT	lure	n/a	n/a	n/a	1
148.937	0.733326237	FLUORIDE	lure	n/a	n/a	n/a	1
149.67	0.602269	BENCH	lure	n/a	n/a	n/a	1
150.272	0.664375954	PORTAL	short	n/a	n/a	n/a	1
150.937	0.716653587	POLYGON	lure	n/a	n/a	n/a	1
151.653	0.316666454	ARMCHAIR	lure	n/a	n/a	n/a	1
151.97	0.616655087	SCALP	lure	n/a	n/a	n/a	1
152.587	0.566719791	LEATHER	lure	n/a	n/a	n/a	1
153.154	0.366606792	SECRETARY	lure	n/a	n/a	n/a	1
153.52	0.666713977	TABLESPOON	lure	n/a	n/a	n/a	1
154.187	0.617086589	PILLION	lure	n/a	n/a	n/a	1
154.804	0.566173903	GRAYBEARD	lure	n/a	n/a	n/a	1
155.37	0.666714832	FINISHER	lure	n/a	n/a	n/a	1
156.037	0.749932349	BACKPACK	lure	n/a	n/a	n/a	1
156.787	0.616716773	ALTERATION	lure	n/a	n/a	n/a	1
157.403	0.466602278	VINEYARD	lure	n/a	n/a	n/a	1
157.87	0.383326868	SHUTTLE	lure	n/a	n/a	n/a	1
158.253	0.366662097	ROADSIDE	lure	n/a	n/a	n/a	1
158.62	2.016639423	RAINDROP	long	n/a	n/a	n/a	1
160.637	0.699993268	MATH	lure	n/a	n/a	n/a	1
161.337	0.516704522	SONOGRAM	lure	n/a	n/a	n/a	1
161.853	0.316674048	EXPECTANCY	lure	n/a	n/a	n/a	1
162.17	0.749930677	MEMORY	lure	n/a	n/a	n/a	1
162.92	0.499992861	MALT	lure	n/a	n/a	n/a	1
163.42	0.683379305	DIALECT	lure	n/a	n/a	n/a	1
164.103	0.669640689	PENALTY	lure	n/a	n/a	n/a	1
164.773	0.663676773	GRATUITY	lure	n/a	n/a	n/a	1
165.437	0.749931496	SALESCLERK	lure	n/a	n/a	n/a	1
166.187	0.366719325	MICROSCOPE	lure	n/a	n/a	n/a	1
166.553	0.666643121	MASCARA	lure	n/a	n/a	n/a	1
167.22	1.016608262	GRAPEFRUIT	fruit	594	2	2	1
168.237	0.700053741	PATRIMONY	lure	n/a	n/a	n/a	1
168.937	0.599985087	FOOTSTOOL	lure	n/a	n/a	n/a	1
169.537	0.466604817	OCCUPANT	lure	n/a	n/a	n/a	1
170.003	0.583384826	ORATOR	lure	n/a	n/a	n/a	1
170.587	0.399935615	ASSERTION	lure	n/a	n/a	n/a	1
170.987	0.566659947	OVERCOAT	lure	n/a	n/a	n/a	1
171.553	0.668006829	COLOGNE	lure	n/a	n/a	n/a	1
172.221	0.498645298	BACKYARD	lure	n/a	n/a	n/a	1
172.72	0.733324374	FIREWOOD	lure	n/a	n/a	n/a	1
173.453	0.749989344	RIBOFLAVIN	lure	n/a	n/a	n/a	1
174.203	0.716654906	GUNPOWDER	lure	n/a	n/a	n/a	1
174.92	0.683327546	NONSTARTER	lure	n/a	n/a	n/a	1
175.603	2.050025668	STEEL	long	n/a	n/a	n/a	1
177.653	0.533269449	SENTIMENT	lure	n/a	n/a	n/a	1
178.186	0.433329316	DEFENDANT	lure	n/a	n/a	n/a	1
178.62	0.449989288	FLAGELLA	lure	n/a	n/a	n/a	1
179.07	0.400044091	CHEMISTRY	lure	n/a	n/a	n/a	1
179.47	0.633333615	BRAVERY	lure	n/a	n/a	n/a	1
180.103	0.599936751	FROGMAN	lure	n/a	n/a	n/a	1
180.703	0.483382816	SUGARLOAF	lure	n/a	n/a	n/a	1
181.186	0.466661772	LOYALTY	lure	n/a	n/a	n/a	1
181.653	0.352441689	BILLBOARD	lure	n/a	n/a	n/a	1
182.006	0.56415241	PINNACLE	lure	n/a	n/a	n/a	1
182.57	0.716741964	ALLEYWAY	lure	n/a	n/a	n/a	1
183.286	0.56663104	SPINE	lure	n/a	n/a	n/a	1
183.853	0.616608479	HURDLE	short	n/a	n/a	n/a	1
184.47	0.349991226	DISARRAY	lure	n/a	n/a	n/a	1
184.82	0.533381647	SHERIFF	lure	n/a	n/a	n/a	1
185.353	0.699932139	TREMOR	lure	n/a	n/a	n/a	1
186.053	0.683325599	INTRUDER	lure	n/a	n/a	n/a	1
186.736	0.683324197	REFUND	lure	n/a	n/a	n/a	1
187.42	0.533325309	ANIMATION	lure	n/a	n/a	n/a	1
187.953	0.449993569	DOGMA	lure	n/a	n/a	n/a	1
188.403	0.699993796	DEJECTION	lure	n/a	n/a	n/a	1
189.103	0.583325704	ABSOLUTION	lure	n/a	n/a	n/a	1
189.686	0.566651233	LOCOMOTION	lure	n/a	n/a	n/a	1
190.253	0.316712198	CHUNK	lure	n/a	n/a	n/a	1
190.57	0.71666768	NODE	lure	n/a	n/a	n/a	1
191.286	0.749935655	MOTORBOAT	lure	n/a	n/a	n/a	1
192.036	0.666721389	SUCCESSOR	lure	n/a	n/a	n/a	1
192.703	1.016587533	PEACH	fruit	767	2	2	1
193.72	0.43342102	UPKEEP	lure	n/a	n/a	n/a	1
194.153	0.733304718	SOMEBODY	lure	n/a	n/a	n/a	1
194.886	0.41658659	CONJUNCT	lure	n/a	n/a	n/a	1
195.303	0.554181601	TOLERANCE	lure	n/a	n/a	n/a	1
195.857	0.479138418	QUEEN	lure	n/a	n/a	n/a	1
196.336	0.566701388	ENIGMA	lure	n/a	n/a	n/a	1
196.903	0.683280461	SUMMERTIME	lure	n/a	n/a	n/a	1
197.586	0.499988341	TRIBE	lure	n/a	n/a	n/a	1
198.086	0.699997176	OUTPOST	lure	n/a	n/a	n/a	1
198.786	0.349994423	CONVENT	lure	n/a	n/a	n/a	1
199.136	0.40005186	WINDBAG	lure	n/a	n/a	n/a	1
199.536	0.383323528	JAGUAR	lure	n/a	n/a	n/a	1
199.92	0.76660386	BASKET	lure	n/a	n/a	n/a	1
200.686	0.399993492	SHOCKWAVE	lure	n/a	n/a	n/a	1
201.086	1.016648482	APPLE	fruit	775	2	2	1
202.103	0.549997959	TANTRUM	lure	n/a	n/a	n/a	1
202.653	0.649989905	BOUTIQUE	lure	n/a	n/a	n/a	1
203.303	0.416715509	DOWNPOUR	lure	n/a	n/a	n/a	1
203.72	0.683264482	PERIPHERY	lure	n/a	n/a	n/a	1
204.403	0.533330729	FILAMENT	lure	n/a	n/a	n/a	1
204.936	0.616661422	HEARSE	lure	n/a	n/a	n/a	1
205.553	0.566656356	BOATMAN	lure	n/a	n/a	n/a	1
206.119	0.416720529	SHAW	lure	n/a	n/a	n/a	1
206.536	0.366597982	SIGNALMAN	lure	n/a	n/a	n/a	1
206.903	0.399998868	PROTECTOR	lure	n/a	n/a	n/a	1
207.303	0.616658432	BUNGALOW	lure	n/a	n/a	n/a	1
207.919	0.76665668	WINDOWPANE	lure	n/a	n/a	n/a	1
208.686	0.516654369	TEAPOT	lure	n/a	n/a	n/a	1
209.203	0.616663099	CHALK	short	n/a	n/a	n/a	1
209.819	0.416661141	LEGUME	lure	n/a	n/a	n/a	1
210.236	0.683325829	COMPUTER	lure	n/a	n/a	n/a	1
210.919	0.599989139	OVERFLOW	lure	n/a	n/a	n/a	1
211.519	0.333325545	INNOVATOR	lure	n/a	n/a	n/a	1
211.853	0.4166623	LEADER	lure	n/a	n/a	n/a	1
212.269	0.483330643	MUFFIN	lure	n/a	n/a	n/a	1
212.753	0.766656124	NOISE	lure	n/a	n/a	n/a	1
213.519	0.699984313	ANARCHIST	lure	n/a	n/a	n/a	1
214.219	0.716721206	SCIENCE	lure	n/a	n/a	n/a	1
214.936	0.483267138	DRAUGHT	lure	n/a	n/a	n/a	1
215.419	0.633381957	CRAYFISH	lure	n/a	n/a	n/a	1
216.053	0.699934866	PRECEDENCE	lure	n/a	n/a	n/a	1
216.753	0.599992155	DECADENCE	lure	n/a	n/a	n/a	1
217.353	0.333379814	BRILLIANCY	lure	n/a	n/a	n/a	1
217.686	1.016656879	KIWI	fruit	680	2	2	1
218.703	0.366605481	RELIGION	lure	n/a	n/a	n/a	1
219.069	0.450051706	CHEF	lure	n/a	n/a	n/a	1
219.519	0.316661302	THIRST	lure	n/a	n/a	n/a	1
219.836	0.533266957	RYE	lure	n/a	n/a	n/a	1
220.369	0.366665403	TALE	lure	n/a	n/a	n/a	1
220.736	0.416661462	RADIATOR	lure	n/a	n/a	n/a	1
221.153	0.499991502	CARPORT	lure	n/a	n/a	n/a	1
221.653	0.733321122	CLASSICIST	lure	n/a	n/a	n/a	1
222.386	0.654425543	DECENCY	lure	n/a	n/a	n/a	1
223.04	0.483564547	MUMMY	lure	n/a	n/a	n/a	1
223.524	0.595321632	PRETENDER	lure	n/a	n/a	n/a	1
224.119	0.416660367	OILFIELD	lure	n/a	n/a	n/a	1
224.536	0.716657643	ADVISEMENT	lure	n/a	n/a	n/a	1
225.253	0.633324645	GOALIE	lure	n/a	n/a	n/a	1
225.886	0.716652654	CONCUSSION	lure	n/a	n/a	n/a	1
226.602	n/a	BRIDGEHEAD	lure	n/a	n/a	n/a	1
238.022	0.663428002	BONEHEAD	lure	n/a	n/a	n/a	1
238.686	0.683317579	COLUMN	lure	n/a	n/a	n/a	1
239.369	0.416722998	DOMINO	lure	n/a	n/a	n/a	1
239.786	0.33326993	HARMONICA	lure	n/a	n/a	n/a	1
240.119	0.516723427	IMPUDENCE	lure	n/a	n/a	n/a	1
240.636	0.399930126	SILHOUETTE	lure	n/a	n/a	n/a	1
241.036	0.4999954	MESSENGER	lure	n/a	n/a	n/a	1
241.536	0.316663293	SCENARIO	lure	n/a	n/a	n/a	1
241.852	1.016649977	GRAPEFRUIT	fruit	593	2	2	1
242.869	0.583327802	STEWARD	lure	n/a	n/a	n/a	1
243.452	0.40399663	BLUEBELL	lure	n/a	n/a	n/a	1
243.856	0.412656494	STUMPER	lure	n/a	n/a	n/a	1
244.269	0.433327404	CHOIRBOY	lure	n/a	n/a	n/a	1
244.702	0.433325912	REFLECTION	lure	n/a	n/a	n/a	1
245.136	0.416666587	WARDROBE	lure	n/a	n/a	n/a	1
245.552	0.633437485	MAGMA	lure	n/a	n/a	n/a	1
246.186	0.549879551	FAITH	lure	n/a	n/a	n/a	1
246.736	0.483321618	CHINAWARE	lure	n/a	n/a	n/a	1
247.219	0.650097246	LANCER	lure	n/a	n/a	n/a	1
247.869	0.483217874	APPENDIX	lure	n/a	n/a	n/a	1
248.352	0.749994477	PACESETTER	lure	n/a	n/a	n/a	1
249.102	0.650045514	GIRTH	lure	n/a	n/a	n/a	1
249.752	0.683268884	FISHBONE	lure	n/a	n/a	n/a	1
250.435	2.016642403	TRUCK	long	n/a	n/a	n/a	1
252.452	0.316659921	CLIPPER	lure	n/a	n/a	n/a	1
252.769	0.599999603	SHRUB	lure	n/a	n/a	n/a	1
253.369	0.516650291	IDEALIST	lure	n/a	n/a	n/a	1
253.885	0.483328588	HEALTH	lure	n/a	n/a	n/a	1
254.369	0.333330531	DIRECTION	lure	n/a	n/a	n/a	1
254.702	0.516656114	IRONWORK	lure	n/a	n/a	n/a	1
255.219	0.716659162	INHIBITOR	lure	n/a	n/a	n/a	1
255.935	0.649992549	TRAPEZE	lure	n/a	n/a	n/a	1
256.585	0.499994633	NOMAD	lure	n/a	n/a	n/a	1
257.085	0.683321033	MATERNITY	lure	n/a	n/a	n/a	1
257.769	0.749989521	AUDITOR	lure	n/a	n/a	n/a	1
258.519	1.016657729	GRAPE	fruit	775	2	2	1
259.535	0.666656877	PRUDE	lure	n/a	n/a	n/a	1
260.202	0.683321	HEXAGRAM	lure	n/a	n/a	n/a	1
260.885	0.733324529	POSTERITY	lure	n/a	n/a	n/a	1
261.619	0.433324667	EMPHYSEMA	lure	n/a	n/a	n/a	1
262.052	0.716737475	KAISER	lure	n/a	n/a	n/a	1
262.769	0.766579457	PLAYOFF	lure	n/a	n/a	n/a	1
263.535	0.616698828	LIPID	lure	n/a	n/a	n/a	1
264.152	0.349946843	FEVER	lure	n/a	n/a	n/a	1
264.502	0.583334396	CARDBOARD	lure	n/a	n/a	n/a	1
265.085	0.635901851	CYCLIST	lure	n/a	n/a	n/a	1
265.721	0.664122017	FLUX	lure	n/a	n/a	n/a	1
266.385	0.450007093	HERNIA	lure	n/a	n/a	n/a	1
266.835	0.616602407	MALLET	short	n/a	n/a	n/a	1
267.452	0.433322777	METHANE	lure	n/a	n/a	n/a	1
267.885	0.700050701	ANARCHISM	lure	n/a	n/a	n/a	1
268.585	0.583269265	GYMNASIUM	lure	n/a	n/a	n/a	1
269.169	0.583371862	HOSPITAL	lure	n/a	n/a	n/a	1
269.752	0.599945555	SWATCH	lure	n/a	n/a	n/a	1
270.352	0.416716351	SPATULA	lure	n/a	n/a	n/a	1
270.769	0.383271836	FRAILTY	lure	n/a	n/a	n/a	1
271.152	0.666656529	DREAMBOAT	lure	n/a	n/a	n/a	1
271.819	0.4833872	PROXY	lure	n/a	n/a	n/a	1
272.302	0.566660852	FLAPJACK	lure	n/a	n/a	n/a	1
272.869	0.649926381	REFORMER	lure	n/a	n/a	n/a	1
273.519	0.683324949	DEFICIT	lure	n/a	n/a	n/a	1
274.202	0.53332784	KIDDER	lure	n/a	n/a	n/a	1
274.735	0.733323375	PULPIT	lure	n/a	n/a	n/a	1
275.468	0.616661517	PORTAL	short	n/a	n/a	n/a	1
276.085	0.599988129	DIALOGUE	lure	n/a	n/a	n/a	1
276.685	0.449994294	FOREMAN	lure	n/a	n/a	n/a	1
277.135	0.56665541	EQUATOR	lure	n/a	n/a	n/a	1
277.702	0.700050659	WIGHT	lure	n/a	n/a	n/a	1
278.402	0.703288613	KINGPIN	lure	n/a	n/a	n/a	1
279.105	0.413304254	DOT	lure	n/a	n/a	n/a	1
279.518	0.333330837	MOOD	lure	n/a	n/a	n/a	1
279.852	0.566703405	DOWNING	lure	n/a	n/a	n/a	1
280.418	0.750002788	BAKERY	lure	n/a	n/a	n/a	1
281.168	0.383269838	DESPOTISM	lure	n/a	n/a	n/a	1
281.552	0.699993832	CAT	lure	n/a	n/a	n/a	1
282.252	0.383326054	BANISTER	lure	n/a	n/a	n/a	1
282.635	0.483327959	REPRESSION	lure	n/a	n/a	n/a	1
283.118	0.699990661	CASTE	lure	n/a	n/a	n/a	1
283.818	1.016705087	PEACH	fruit	691	2	2	1
284.835	0.716601523	MISDEED	lure	n/a	n/a	n/a	1
285.552	0.649988356	WRESTLER	lure	n/a	n/a	n/a	1
286.202	0.316725178	CAPTOR	lure	n/a	n/a	n/a	1
286.518	0.416600204	REVENGE	lure	n/a	n/a	n/a	1
286.935	0.43333103	SUn/aOOF	lure	n/a	n/a	n/a	1
287.368	0.349995621	BECK	lure	n/a	n/a	n/a	1
287.718	0.549991359	LIGHTFOOT	lure	n/a	n/a	n/a	1
288.268	0.66665758	IGUANA	lure	n/a	n/a	n/a	1
288.935	0.549993673	BACKTALK	lure	n/a	n/a	n/a	1
289.485	0.416660103	CENTIMETER	lure	n/a	n/a	n/a	1
289.902	0.383328352	BACKGROUND	lure	n/a	n/a	n/a	1
290.285	0.650077221	EMISSION	lure	n/a	n/a	n/a	1
290.935	0.399909112	SCOPE	lure	n/a	n/a	n/a	1
291.335	0.749990885	COGNAC	lure	n/a	n/a	n/a	1
292.085	0.616651729	BOTTLE	short	n/a	n/a	n/a	1
292.702	0.749993799	HEADBAND	lure	n/a	n/a	n/a	1
293.452	0.59999248	PAIL	lure	n/a	n/a	n/a	1
294.052	0.56666121	MAIDENHOOD	lure	n/a	n/a	n/a	1
294.618	0.733320008	WINTERTIME	lure	n/a	n/a	n/a	1
295.352	0.416661585	AIRBASE	lure	n/a	n/a	n/a	1
295.768	0.516661162	LIVELIHOOD	lure	n/a	n/a	n/a	1
296.285	0.749990201	SEMICOLON	lure	n/a	n/a	n/a	1
297.035	0.383328029	ADRENALIN	lure	n/a	n/a	n/a	1
297.418	0.583381177	HOGSHEAD	lure	n/a	n/a	n/a	1
298.002	0.333273045	BUTANE	lure	n/a	n/a	n/a	1
298.335	0.652451764	MOISTURE	lure	n/a	n/a	n/a	1
298.987	0.714254478	LAMPPOST	lure	n/a	n/a	n/a	1
299.702	0.633263996	UNDERBELLY	lure	n/a	n/a	n/a	1
300.335	0.316662757	VENISON	lure	n/a	n/a	n/a	1
300.651	2.016643381	COAT	long	n/a	n/a	n/a	1
302.668	0.51665593	ECLAIR	lure	n/a	n/a	n/a	1
303.185	0.449995451	EXEMPTION	lure	n/a	n/a	n/a	1
303.635	0.599991468	BROADCLOTH	lure	n/a	n/a	n/a	1
304.235	0.416661625	NONSMOKER	lure	n/a	n/a	n/a	1
304.651	0.366660713	BIOGRAPHER	lure	n/a	n/a	n/a	1
305.018	0.683326576	FACILITY	lure	n/a	n/a	n/a	1
305.701	0.566651932	READER	lure	n/a	n/a	n/a	1
306.268	0.400043387	PIPELINE	lure	n/a	n/a	n/a	1
306.668	0.549997726	NAMEPLATE	lure	n/a	n/a	n/a	1
307.218	0.633353739	OPTIMISM	lure	n/a	n/a	n/a	1
307.851	0.767194383	LIMBO	lure	n/a	n/a	n/a	1
308.619	0.516044868	CONDUCTOR	lure	n/a	n/a	n/a	1
309.135	1.016652165	BANANA	fruit	687	2	2	1
310.151	0.466659684	PRESIDENT	lure	n/a	n/a	n/a	1
310.618	0.383329558	OGRE	lure	n/a	n/a	n/a	1
311.001	0.349994162	CALIBER	lure	n/a	n/a	n/a	1
311.351	0.316661324	TOWNSMEN	lure	n/a	n/a	n/a	1
311.668	0.316664905	SWORDPLAY	lure	n/a	n/a	n/a	1
311.985	0.533325695	FIRTH	lure	n/a	n/a	n/a	1
312.518	0.450053391	CHIC	lure	n/a	n/a	n/a	1
312.968	0.43326519	PASTOR	lure	n/a	n/a	n/a	1
313.401	0.500042185	STAGNATION	lure	n/a	n/a	n/a	1
313.901	0.649987073	ROOFTOP	lure	n/a	n/a	n/a	1
314.551	0.700010172	HANDICAP	lure	n/a	n/a	n/a	1
315.251	0.616595289	CONVEYER	lure	n/a	n/a	n/a	1
315.868	0.616657223	AUTOMATION	lure	n/a	n/a	n/a	1
316.485	0.549994583	VIDEOTAPE	lure	n/a	n/a	n/a	1
317.035	0.483323966	OBLIGATION	lure	n/a	n/a	n/a	1
317.518	2.0166421	PURSE	long	n/a	n/a	n/a	1
319.535	0.466712217	MADWOMAN	lure	n/a	n/a	n/a	1
320.001	0.549936359	BIGOT	lure	n/a	n/a	n/a	1
320.551	0.450062185	LENDER	lure	n/a	n/a	n/a	1
321.001	0.466595606	SUNLIGHT	lure	n/a	n/a	n/a	1
321.468	0.383376982	STANDPOINT	lure	n/a	n/a	n/a	1
321.851	0.43334006	GREEn/aOOM	lure	n/a	n/a	n/a	1
322.285	0.349932046	STIGMATA	lure	n/a	n/a	n/a	1
322.635	0.39999514	CUTAWAY	lure	n/a	n/a	n/a	1
323.035	0.46671931	GIBBERISH	lure	n/a	n/a	n/a	1
323.501	0.483266826	ALLERGY	lure	n/a	n/a	n/a	1
323.984	0.599993403	VACANCY	lure	n/a	n/a	n/a	1
324.584	0.366658603	BEEFEATER	lure	n/a	n/a	n/a	1
324.951	0.383392726	HUMPBACK	lure	n/a	n/a	n/a	1
325.335	2.016577779	JAIL	long	n/a	n/a	n/a	1
327.351	0.466714002	PRINCIPLE	lure	n/a	n/a	n/a	1
327.818	0.633270702	EXPOSURE	lure	n/a	n/a	n/a	1
328.451	0.56665371	INGESTION	lure	n/a	n/a	n/a	1
329.018	0.433333325	BEARER	lure	n/a	n/a	n/a	1
329.451	0.316661116	DEPOSITION	lure	n/a	n/a	n/a	1
329.768	0.633323868	SPASM	lure	n/a	n/a	n/a	1
330.401	0.383329751	DEAN	lure	n/a	n/a	n/a	1
330.784	0.766657295	CONCESSION	lure	n/a	n/a	n/a	1
331.551	0.366654933	SECRECY	lure	n/a	n/a	n/a	1
331.918	0.633330184	BOAR	lure	n/a	n/a	n/a	1
332.551	0.383327993	BOUNDARY	lure	n/a	n/a	n/a	1
332.934	0.366719904	WEIRDO	lure	n/a	n/a	n/a	1
333.301	2.01658022	MARKET	long	n/a	n/a	n/a	1
335.318	0.316710612	CARPENTRY	lure	n/a	n/a	n/a	1
335.634	0.533281932	RANCH	lure	n/a	n/a	n/a	1
336.168	0.333326008	CONFESSION	lure	n/a	n/a	n/a	1
336.501	0.5166578	WAXWORK	lure	n/a	n/a	n/a	1
337.018	0.766654807	EXCEPTION	lure	n/a	n/a	n/a	1
337.784	0.683323185	JUDICIARY	lure	n/a	n/a	n/a	1
338.468	0.752469871	CITADEL	lure	n/a	n/a	n/a	1
339.22	0.697514711	DROPLET	lure	n/a	n/a	n/a	1
339.918	0.350044365	JAG	lure	n/a	n/a	n/a	1
340.268	0.549938535	INSTANCE	lure	n/a	n/a	n/a	1
340.818	0.366666828	OVERLAY	lure	n/a	n/a	n/a	1
341.184	0.616657828	CLOTH	short	n/a	n/a	n/a	1
341.801	0.366704909	RIDER	lure	n/a	n/a	n/a	1
342.168	0.349948674	SAINTHOOD	lure	n/a	n/a	n/a	1
342.518	0.416663371	ADVISOR	lure	n/a	n/a	n/a	1
342.934	0.450046865	RHEUMATISM	lure	n/a	n/a	n/a	1
343.384	0.716649768	ENTOMOLOGY	lure	n/a	n/a	n/a	1
344.101	0.416610389	KEEPER	lure	n/a	n/a	n/a	1
344.518	0.683329926	HYPERBOLA	lure	n/a	n/a	n/a	1
345.201	0.433328773	TERRACOTTA	lure	n/a	n/a	n/a	1
345.634	0.352140421	TURTLE	lure	n/a	n/a	n/a	1
345.986	0.481180325	LEVITATION	lure	n/a	n/a	n/a	1
346.468	0.699989272	CACHET	lure	n/a	n/a	n/a	1
347.168	0.316661102	BREAKAGE	lure	n/a	n/a	n/a	1
347.484	0.533324646	LAUNDROMAT	lure	n/a	n/a	n/a	1
348.018	0.333387657	LECTURER	lure	n/a	n/a	n/a	1
348.351	0.599995568	CHEMIST	lure	n/a	n/a	n/a	1
348.951	0.699985585	MIDSUMMER	lure	n/a	n/a	n/a	1
349.651	2.016586789	APRON	long	n/a	n/a	n/a	1
351.667	0.383380538	SALAMANDER	lure	n/a	n/a	n/a	1
352.051	0.583747162	RENDITION	lure	n/a	n/a	n/a	1
352.635	0.566183264	SCOUNDREL	lure	n/a	n/a	n/a	1
353.201	0.583325572	PEACETIME	lure	n/a	n/a	n/a	1
353.784	0.699989654	CATALYST	lure	n/a	n/a	n/a	1
354.484	0.549990263	MILEAGE	lure	n/a	n/a	n/a	1
355.034	0.46785007	TOLERATION	lure	n/a	n/a	n/a	1
355.502	0.43214223	WEALTH	lure	n/a	n/a	n/a	1
355.934	0.533377372	PENICILLIN	lure	n/a	n/a	n/a	1
356.467	0.566664405	VERNACULAR	lure	n/a	n/a	n/a	1
357.034	0.649933625	CASHIER	lure	n/a	n/a	n/a	1
357.684	0.649991055	PRECURSOR	lure	n/a	n/a	n/a	1
358.334	0.616653661	HOOD	short	n/a	n/a	n/a	1
358.951	0.599992872	POPULATION	lure	n/a	n/a	n/a	1
359.551	0.383390617	FERRYBOAT	lure	n/a	n/a	n/a	1
359.934	0.44993209	PEDDLER	lure	n/a	n/a	n/a	1
360.384	0.616659429	STAIRWELL	lure	n/a	n/a	n/a	1
361.001	0.416662313	FANFARE	lure	n/a	n/a	n/a	1
361.417	0.533404601	MISMATCH	lure	n/a	n/a	n/a	1
361.951	0.399955476	SANDPIT	lure	n/a	n/a	n/a	1
362.351	0.416621062	ELF	lure	n/a	n/a	n/a	1
362.767	0.500054003	SAMBA	lure	n/a	n/a	n/a	1
363.267	0.433267136	TRADEMARK	lure	n/a	n/a	n/a	1
363.701	0.666697269	TRIBESMEN	lure	n/a	n/a	n/a	1
364.367	0.3832877	CONTEXT	lure	n/a	n/a	n/a	1
364.751	0.533323301	SLEET	lure	n/a	n/a	n/a	1
365.284	0.466719285	SKULL	lure	n/a	n/a	n/a	1
365.751	0.683321423	MAXIMA	lure	n/a	n/a	n/a	1
366.434	0.466662972	BORER	lure	n/a	n/a	n/a	1
366.901	0.616643023	CHALK	short	n/a	n/a	n/a	1
367.517	0.716616899	DEFROSTER	lure	n/a	n/a	n/a	1
368.234	0.383387909	SETTLER	lure	n/a	n/a	n/a	1
368.617	0.683262884	ABSORBENCY	lure	n/a	n/a	n/a	1
369.301	0.749988877	CABOODLE	lure	n/a	n/a	n/a	1
370.051	0.4666639	MEDIUM	lure	n/a	n/a	n/a	1
370.517	0.583324431	POTTERY	lure	n/a	n/a	n/a	1
371.101	0.399993828	RESISTANCE	lure	n/a	n/a	n/a	1
371.501	0.466654844	PAINTER	lure	n/a	n/a	n/a	1
371.967	0.766661755	CERTAINTY	lure	n/a	n/a	n/a	1
372.734	0.633322646	WAREHOUSE	lure	n/a	n/a	n/a	1
373.367	0.350565791	CASEWORK	lure	n/a	n/a	n/a	1
373.718	0.366093547	FALSITY	lure	n/a	n/a	n/a	1
374.084	0.516714384	PUZZLER	lure	n/a	n/a	n/a	1
374.601	0.53326966	CEREBRUM	lure	n/a	n/a	n/a	1
375.134	0.61665753	HURDLE	short	n/a	n/a	n/a	1
375.75	0.449992524	EMPATHY	lure	n/a	n/a	n/a	1
376.2	0.56671819	MAKER	lure	n/a	n/a	n/a	1
376.767	0.599931566	WIZARDRY	lure	n/a	n/a	n/a	1
377.367	0.416659817	FOOTBOARD	lure	n/a	n/a	n/a	1
377.784	0.383380512	CIGAR	lure	n/a	n/a	n/a	1
378.167	0.483280566	STEIN	lure	n/a	n/a	n/a	1
378.65	0.583324826	HEADLAND	lure	n/a	n/a	n/a	1
379.234	0.533383898	NOMINEE	lure	n/a	n/a	n/a	1
379.767	0.649931722	ROSEMARY	lure	n/a	n/a	n/a	1
380.417	0.766658038	TORCHLIGHT	lure	n/a	n/a	n/a	1
381.184	0.399992304	MENACE	lure	n/a	n/a	n/a	1
381.584	0.466662416	MILLIMETER	lure	n/a	n/a	n/a	1
382.05	0.716653094	BROOMSTICK	lure	n/a	n/a	n/a	1
382.767	0.399998139	DRAMATIST	lure	n/a	n/a	n/a	1
383.167	2.016640483	CARD	long	n/a	n/a	n/a	1
385.184	0.666714789	RECORD	lure	n/a	n/a	n/a	1
385.85	0.366598708	MORPHOLOGY	lure	n/a	n/a	n/a	1
386.217	0.566658468	GLEANER	lure	n/a	n/a	n/a	1
386.784	0.350000517	VAN	lure	n/a	n/a	n/a	1
387.134	0.616660287	ENTRAPMENT	lure	n/a	n/a	n/a	1
387.75	0.602161453	VELVET	lure	n/a	n/a	n/a	1
388.352	0.418785701	DAGGER	lure	n/a	n/a	n/a	1
388.771	0.329088317	BULLFROG	lure	n/a	n/a	n/a	1
389.1	0.733323652	PASSBOOK	lure	n/a	n/a	n/a	1
389.834	0.649936364	WALLET	lure	n/a	n/a	n/a	1
390.484	0.316706284	PRODIGY	lure	n/a	n/a	n/a	1
390.8	0.383340978	FRIEND	lure	n/a	n/a	n/a	1
391.184	2.016583925	STAKE	long	n/a	n/a	n/a	1
393.2	0.383379552	GILL	lure	n/a	n/a	n/a	1
393.584	0.749998841	THRILLER	lure	n/a	n/a	n/a	1
394.334	0.683260979	INN	lure	n/a	n/a	n/a	1
395.017	0.599991641	BRONCO	lure	n/a	n/a	n/a	1
395.617	0.719649745	DISSENT	lure	n/a	n/a	n/a	1
396.337	0.34699851	RANCHER	lure	n/a	n/a	n/a	1
396.684	0.466709369	BABE	lure	n/a	n/a	n/a	1
397.15	0.466674528	QUANTUM	lure	n/a	n/a	n/a	1
397.617	0.349991536	MAPLE	lure	n/a	n/a	n/a	1
397.967	0.483270857	HAY	lure	n/a	n/a	n/a	1
398.45	0.649987639	OUTAGE	lure	n/a	n/a	n/a	1
399.1	0.650058419	HOMELAND	lure	n/a	n/a	n/a	1
399.75	1.066586507	CHERRY	fruit	623	2	2	1
400.817	0.633324378	SHEEP	lure	n/a	n/a	n/a	1
401.45	0.616662472	BETTERMENT	lure	n/a	n/a	n/a	1
402.067	0.316718629	ALIMONY	lure	n/a	n/a	n/a	1
402.383	0.633267562	RUDDER	lure	n/a	n/a	n/a	1
403.017	0.619561546	SPECIALITY	lure	n/a	n/a	n/a	1
403.636	0.56756405	CAREERISM	lure	n/a	n/a	n/a	1
404.204	0.663569163	HICKORY	lure	n/a	n/a	n/a	1
404.867	0.499272431	CRADLE	lure	n/a	n/a	n/a	1
405.367	0.583384776	GRADATION	lure	n/a	n/a	n/a	1
405.95	0.716596866	NEGLIGENCE	lure	n/a	n/a	n/a	1
406.667	0.466659862	HONEYDEW	lure	n/a	n/a	n/a	1
407.133	0.586499844	KILOGRAM	lure	n/a	n/a	n/a	1
407.72	0.380218663	BATH	lure	n/a	n/a	n/a	1
408.1	0.61659369	HOSE	short	n/a	n/a	n/a	1
408.717	0.533326284	COUNSELOR	lure	n/a	n/a	n/a	1
409.25	0.59999246	DISASTER	lure	n/a	n/a	n/a	1
409.85	0.666704549	PROSTATE	lure	n/a	n/a	n/a	1
410.517	0.503430283	PRESERVER	lure	n/a	n/a	n/a	1
411.02	0.346512935	ACETONE	lure	n/a	n/a	n/a	1
411.367	0.566654541	BACKACHE	lure	n/a	n/a	n/a	1
411.933	0.433326892	SANCTITY	lure	n/a	n/a	n/a	1
412.367	0.483326021	BRUISER	lure	n/a	n/a	n/a	1
412.85	0.33333219	PERCENTILE	lure	n/a	n/a	n/a	1
413.183	0.533324238	ARCADE	lure	n/a	n/a	n/a	1
413.717	0.599994167	FORKLIFT	lure	n/a	n/a	n/a	1
414.317	0.316721569	RUMINATION	lure	n/a	n/a	n/a	1
414.633	0.333268592	DILUTION	lure	n/a	n/a	n/a	1
414.967	0.483326906	COUPLET	lure	n/a	n/a	n/a	1
415.45	0.733323685	GLOBE	lure	n/a	n/a	n/a	1
416.183	0.799987228	FLANNEL	lure	n/a	n/a	n/a	1
416.983	1.016713659	BLACKBERRY	fruit	622	2	2	1
418	0.333268867	MATRIX	lure	n/a	n/a	n/a	1
418.333	0.700048255	POTBOILER	lure	n/a	n/a	n/a	1
419.033	0.433330032	SCHEMA	lure	n/a	n/a	n/a	1
419.467	0.399935224	MOTHBALL	lure	n/a	n/a	n/a	1
419.867	0.53332769	INVENTION	lure	n/a	n/a	n/a	1
420.4	0.316719411	FOOTHOLD	lure	n/a	n/a	n/a	1
420.717	0.54993561	DUSTER	lure	n/a	n/a	n/a	1
421.267	0.633380243	TRIBALISM	lure	n/a	n/a	n/a	1
421.9	0.583267922	EMPORIUM	lure	n/a	n/a	n/a	1
422.483	0.38332759	FIRESIDE	lure	n/a	n/a	n/a	1
422.866	0.516732605	AMPLIFIER	lure	n/a	n/a	n/a	1
423.383	0.499922295	PASSION	lure	n/a	n/a	n/a	1
423.883	0.683381856	VALIDITY	lure	n/a	n/a	n/a	1
424.567	0.616656174	COUP	lure	n/a	n/a	n/a	1
425.183	2.016585734	STEEL	long	n/a	n/a	n/a	1
427.2	0.583323223	VEAL	lure	n/a	n/a	n/a	1
427.783	0.399993211	SKYLARK	lure	n/a	n/a	n/a	1
428.183	0.416662344	ESCAPADE	lure	n/a	n/a	n/a	1
428.6	0.433324138	INCOME	lure	n/a	n/a	n/a	1
429.033	0.39999645	ABBEY	lure	n/a	n/a	n/a	1
429.433	0.716658668	SHAM	lure	n/a	n/a	n/a	1
430.15	0.616657668	NIGHTIE	lure	n/a	n/a	n/a	1
430.766	0.483326381	INSTIGATOR	lure	n/a	n/a	n/a	1
431.25	0.449994713	RINGLEADER	lure	n/a	n/a	n/a	1
431.7	0.366661428	RADIANCE	lure	n/a	n/a	n/a	1
432.066	0.633378103	COPYBOOK	lure	n/a	n/a	n/a	1
432.7	0.516631324	SKEPTICISM	lure	n/a	n/a	n/a	1
433.216	0.616633192	DRILL	short	n/a	n/a	n/a	1
433.833	0.566656724	EUTHANASIA	lure	n/a	n/a	n/a	1
434.4	0.683325977	OVERLORD	lure	n/a	n/a	n/a	1
435.083	0.533383269	ASTERISK	lure	n/a	n/a	n/a	1
435.616	0.516600604	STOCKADE	lure	n/a	n/a	n/a	1
436.133	0.649992129	STEAD	lure	n/a	n/a	n/a	1
436.783	0.499993484	RATIONALE	lure	n/a	n/a	n/a	1
437.283	0.41666173	ANTHOLOGY	lure	n/a	n/a	n/a	1
437.7	0.349995226	PAINTWORK	lure	n/a	n/a	n/a	1
438.05	0.766657511	UNDERBRUSH	lure	n/a	n/a	n/a	1
438.816	0.516657149	MEMOIR	lure	n/a	n/a	n/a	1
439.333	0.601160402	KRAUT	lure	n/a	n/a	n/a	1
439.934	0.648825091	BRAINCHILD	lure	n/a	n/a	n/a	1
440.583	0.383328222	WHEAT	lure	n/a	n/a	n/a	1
440.966	0.450052797	BYSTANDER	lure	n/a	n/a	n/a	1
441.416	0.61659732	DISC	short	n/a	n/a	n/a	1
442.033	0.333381731	CAUSALITY	lure	n/a	n/a	n/a	1
442.366	0.649996762	LAWSUIT	lure	n/a	n/a	n/a	1
443.016	0.51694478	JOCKEY	lure	n/a	n/a	n/a	1
443.533	0.466314881	WITCHCRAFT	lure	n/a	n/a	n/a	1
444	0.383388376	DIVERSITY	lure	n/a	n/a	n/a	1
444.383	0.599932467	SHIPBOARD	lure	n/a	n/a	n/a	1
444.983	0.533374602	GLORY	lure	n/a	n/a	n/a	1
445.516	0.766610554	SISTERHOOD	lure	n/a	n/a	n/a	1
446.283	0.333327366	TRADESMAN	lure	n/a	n/a	n/a	1
446.616	0.416716342	PEST	lure	n/a	n/a	n/a	1
447.033	0.333273323	JEOPARDY	lure	n/a	n/a	n/a	1
447.366	0.33332998	ATTACHMENT	lure	n/a	n/a	n/a	1
447.699	0.683323208	GULLY	lure	n/a	n/a	n/a	1
448.383	0.433384702	ROTISSERIE	lure	n/a	n/a	n/a	1
448.816	0.516599785	SEIZURE	lure	n/a	n/a	n/a	1
449.333	0.699991648	SUBMARINE	lure	n/a	n/a	n/a	1
450.033	2.016636421	RAINDROP	long	n/a	n/a	n/a	1
452.049	0.750049937	PROCURATOR	lure	n/a	n/a	n/a	1
452.799	0.533268969	EXPERTISE	lure	n/a	n/a	n/a	1
453.333	0.633380444	YAM	lure	n/a	n/a	n/a	1
453.966	0.666603256	SANCTUARY	lure	n/a	n/a	n/a	1
454.633	0.466659687	RETAIL	lure	n/a	n/a	n/a	1
455.099	0.516657419	STEPMOTHER	lure	n/a	n/a	n/a	1
455.616	0.666661483	OUTFLOW	lure	n/a	n/a	n/a	1
456.283	0.716656432	HYPNOTIST	lure	n/a	n/a	n/a	1
456.999	0.41665747	EMPLOYEE	lure	n/a	n/a	n/a	1
457.416	0.61666286	OBSERVANCE	lure	n/a	n/a	n/a	1
458.033	0.666650534	STATEHOOD	lure	n/a	n/a	n/a	1
458.699	0.483332831	CALCULATOR	lure	n/a	n/a	n/a	1
459.183	0.633371613	GIBLET	lure	n/a	n/a	n/a	1
459.816	0.316673569	SUPERMAN	lure	n/a	n/a	n/a	1
460.133	0.549932581	BREAKUP	lure	n/a	n/a	n/a	1
460.683	0.734882604	DELETION	lure	n/a	n/a	n/a	1
461.418	0.365159324	SPEAKEASY	lure	n/a	n/a	n/a	1
461.783	0.533325943	FAUCET	lure	n/a	n/a	n/a	1
462.316	0.766598662	CONDENSER	lure	n/a	n/a	n/a	1
463.083	0.466720097	WHEELBASE	lure	n/a	n/a	n/a	1
463.549	0.433270381	LILY	lure	n/a	n/a	n/a	1
463.983	0.73332169	CARTOONIST	lure	n/a	n/a	n/a	1
464.716	n/a	BALM	lure	n/a	n/a	n/a	1