onset	duration	stim	cond	RT	resp	cresp	acc
4.052	0.399990994	PLEASANTRY	lure	n/a	n/a	n/a	1
4.452	0.716662898	GARDENIA	lure	n/a	n/a	n/a	1
5.169	0.433327993	THEATER	lure	n/a	n/a	n/a	1
5.602	0.383327184	ROMP	lure	n/a	n/a	n/a	1
5.986	0.683382842	EASTERNER	lure	n/a	n/a	n/a	1
6.669	0.704017972	PROPRIETY	lure	n/a	n/a	n/a	1
7.373	0.562571428	THIEVERY	lure	n/a	n/a	n/a	1
7.936	2.016639842	PURSE	long	n/a	n/a	n/a	1
9.952	0.449993671	SEAWATER	lure	n/a	n/a	n/a	1
10.402	0.366662947	DIAMOND	lure	n/a	n/a	n/a	1
10.769	0.68332336	NUMERATOR	lure	n/a	n/a	n/a	1
11.452	0.549993369	LAB	lure	n/a	n/a	n/a	1
12.002	0.366656243	SABRE	lure	n/a	n/a	n/a	1
12.369	0.633330486	EXTREMISM	lure	n/a	n/a	n/a	1
13.002	0.652285068	CRITTER	lure	n/a	n/a	n/a	1
13.654	0.514422011	PLANELOAD	lure	n/a	n/a	n/a	1
14.169	0.633322484	THROWER	lure	n/a	n/a	n/a	1
14.802	0.583317035	VISION	lure	n/a	n/a	n/a	1
15.386	0.533279434	UNDERSHIRT	lure	n/a	n/a	n/a	1
15.919	0.666656213	TRUFFLE	lure	n/a	n/a	n/a	1
16.585	1.016654002	NECTARINE	fruit	804	2	2	1
17.602	0.588048591	DETERGENT	lure	n/a	n/a	n/a	1
18.19	0.313781231	MONOLOGUE	lure	n/a	n/a	n/a	1
18.504	0.73148158	PLANER	lure	n/a	n/a	n/a	1
19.235	0.583326578	DECORATOR	lure	n/a	n/a	n/a	1
19.819	0.549991579	BONBON	lure	n/a	n/a	n/a	1
20.369	0.549993226	DRIVEWAY	lure	n/a	n/a	n/a	1
20.919	0.383326465	SALAD	lure	n/a	n/a	n/a	1
21.302	0.683372468	DRUNKARD	lure	n/a	n/a	n/a	1
21.985	0.383385728	SUn/aAY	lure	n/a	n/a	n/a	1
22.369	0.466553396	DAIQUIRI	lure	n/a	n/a	n/a	1
22.835	0.549993393	THERAPY	lure	n/a	n/a	n/a	1
23.385	0.383327631	PROGRAMMER	lure	n/a	n/a	n/a	1
23.769	0.599989218	HARDBOARD	lure	n/a	n/a	n/a	1
24.369	0.533368117	LIGAMENT	lure	n/a	n/a	n/a	1
24.902	0.616619289	MALLET	short	n/a	n/a	n/a	1
25.519	0.566704574	TRAINMAN	lure	n/a	n/a	n/a	1
26.085	0.349950651	PACKAGE	lure	n/a	n/a	n/a	1
26.435	0.383328202	APPOINTEE	lure	n/a	n/a	n/a	1
26.819	0.716652931	RIBBING	lure	n/a	n/a	n/a	1
27.535	0.733328294	LOUDMOUTH	lure	n/a	n/a	n/a	1
28.269	0.483326481	CONCORD	lure	n/a	n/a	n/a	1
28.752	0.549993333	RICE	lure	n/a	n/a	n/a	1
29.302	0.316662158	BEVERAGE	lure	n/a	n/a	n/a	1
29.619	0.516658031	INEQUITY	lure	n/a	n/a	n/a	1
30.135	0.649986742	HISTORIAN	lure	n/a	n/a	n/a	1
30.785	0.666663168	STARTER	lure	n/a	n/a	n/a	1
31.452	0.683321922	HONEYBEE	lure	n/a	n/a	n/a	1
32.135	0.699992646	APPROVAL	lure	n/a	n/a	n/a	1
32.835	0.500049247	MOTEL	lure	n/a	n/a	n/a	1
33.335	0.616601918	HOOD	short	n/a	n/a	n/a	1
33.952	0.549992	ANECDOTE	lure	n/a	n/a	n/a	1
34.502	0.366661751	DEVIANCY	lure	n/a	n/a	n/a	1
34.869	0.369450288	SEMINAR	lure	n/a	n/a	n/a	1
35.238	0.313869866	MITTEN	lure	n/a	n/a	n/a	1
35.552	0.369480505	BEDFELLOW	lure	n/a	n/a	n/a	1
35.921	0.49878872	ADVERTISER	lure	n/a	n/a	n/a	1
36.42	0.565047015	DOORKEEPER	lure	n/a	n/a	n/a	1
36.985	0.616654482	CATEGORY	lure	n/a	n/a	n/a	1
37.602	0.616661615	FULLBACK	lure	n/a	n/a	n/a	1
38.218	0.683373542	BOASTER	lure	n/a	n/a	n/a	1
38.902	0.649944894	EARPLUG	lure	n/a	n/a	n/a	1
39.552	0.750036664	SOMBRERO	lure	n/a	n/a	n/a	1
40.302	0.566611204	THEOCRACY	lure	n/a	n/a	n/a	1
40.868	0.549993047	INTENSITY	lure	n/a	n/a	n/a	1
41.418	0.449993885	LECH	lure	n/a	n/a	n/a	1
41.868	0.61665871	BOTTLE	short	n/a	n/a	n/a	1
42.485	0.533325271	PARAGRAPH	lure	n/a	n/a	n/a	1
43.018	0.466660669	MOMENT	lure	n/a	n/a	n/a	1
43.485	0.716735387	SNAPSHOT	lure	n/a	n/a	n/a	1
44.202	0.366576873	LOOTER	lure	n/a	n/a	n/a	1
44.568	0.466666189	AUCTIONEER	lure	n/a	n/a	n/a	1
45.035	0.583321804	WICKET	lure	n/a	n/a	n/a	1
45.618	0.433331629	PORTHOLE	lure	n/a	n/a	n/a	1
46.052	0.416660276	HUSK	lure	n/a	n/a	n/a	1
46.468	0.566653855	INFO	lure	n/a	n/a	n/a	1
47.035	0.699989881	CARTON	lure	n/a	n/a	n/a	1
47.735	0.34999862	CHAPEL	lure	n/a	n/a	n/a	1
48.085	0.349992067	BAZAAR	lure	n/a	n/a	n/a	1
48.435	0.683328793	SHIPWRECK	lure	n/a	n/a	n/a	1
49.118	0.566696835	OUTSIDER	lure	n/a	n/a	n/a	1
49.685	0.633326875	SORCERER	lure	n/a	n/a	n/a	1
50.318	2.016601142	CARD	long	n/a	n/a	n/a	1
52.335	0.450041487	BRONZE	lure	n/a	n/a	n/a	1
52.785	0.416648733	APPARITION	lure	n/a	n/a	n/a	1
53.202	0.533286444	PETROLEUM	lure	n/a	n/a	n/a	1
53.735	0.750031492	SUBHEADING	lure	n/a	n/a	n/a	1
54.485	0.566621076	COLONIST	lure	n/a	n/a	n/a	1
55.052	0.466659295	REMOVER	lure	n/a	n/a	n/a	1
55.518	0.416661236	SYNDICATE	lure	n/a	n/a	n/a	1
55.935	0.349992546	BOY	lure	n/a	n/a	n/a	1
56.285	0.333370518	TRICKSTER	lure	n/a	n/a	n/a	1
56.618	0.483288614	GUNPLAY	lure	n/a	n/a	n/a	1
57.102	0.433326168	GLASSWARE	lure	n/a	n/a	n/a	1
57.535	0.31666056	GASLIGHT	lure	n/a	n/a	n/a	1
57.852	0.650033294	RIVERVIEW	lure	n/a	n/a	n/a	1
58.502	0.633286193	OCEANSIDE	lure	n/a	n/a	n/a	1
59.135	0.616653926	HURDLE	short	n/a	n/a	n/a	1
59.752	0.483330365	EXCAVATION	lure	n/a	n/a	n/a	1
60.235	0.466705618	APPLAUSE	lure	n/a	n/a	n/a	1
60.702	0.683318492	RESIDENCE	lure	n/a	n/a	n/a	1
61.385	0.649949001	SPEEDBOAT	lure	n/a	n/a	n/a	1
62.035	0.549995793	FANTASIA	lure	n/a	n/a	n/a	1
62.585	0.649989735	SERVILITY	lure	n/a	n/a	n/a	1
63.235	0.499992284	EXAM	lure	n/a	n/a	n/a	1
63.735	0.599992676	SKY	lure	n/a	n/a	n/a	1
64.335	0.717499375	WELFARE	lure	n/a	n/a	n/a	1
65.052	0.34918802	GALLUP	lure	n/a	n/a	n/a	1
65.401	0.733285795	GROWER	lure	n/a	n/a	n/a	1
66.135	0.399995898	POCKETBOOK	lure	n/a	n/a	n/a	1
66.535	0.616659264	FLAPPER	lure	n/a	n/a	n/a	1
67.151	0.583319749	SOCCER	lure	n/a	n/a	n/a	1
67.735	2.016646215	STEEL	long	n/a	n/a	n/a	1
69.751	0.749988552	LIAISON	lure	n/a	n/a	n/a	1
70.501	0.583319909	DESTROYER	lure	n/a	n/a	n/a	1
71.085	0.716656706	SIDECAR	lure	n/a	n/a	n/a	1
71.801	0.716707881	FATSO	lure	n/a	n/a	n/a	1
72.518	0.684956764	JUBILEE	lure	n/a	n/a	n/a	1
73.203	0.631643444	AMBIANCE	lure	n/a	n/a	n/a	1
73.835	0.6333258	SAGA	lure	n/a	n/a	n/a	1
74.468	0.535955633	WRAPPER	lure	n/a	n/a	n/a	1
75.004	0.717568144	DEADLOCK	lure	n/a	n/a	n/a	1
75.722	0.696453422	SCREENPLAY	lure	n/a	n/a	n/a	1
76.418	2.016636995	MARKET	long	n/a	n/a	n/a	1
78.435	0.516659657	DOORMAT	lure	n/a	n/a	n/a	1
78.951	0.733324044	EXCLUSION	lure	n/a	n/a	n/a	1
79.685	0.466659777	SCRAPER	lure	n/a	n/a	n/a	1
80.151	0.416661285	LEGACY	lure	n/a	n/a	n/a	1
80.568	0.449988871	LANE	lure	n/a	n/a	n/a	1
81.018	0.350085309	CURBSIDE	lure	n/a	n/a	n/a	1
81.368	0.483236979	MILLENNIA	lure	n/a	n/a	n/a	1
81.851	0.516702282	SEDIMENT	lure	n/a	n/a	n/a	1
82.368	0.349959015	KEROSENE	lure	n/a	n/a	n/a	1
82.718	0.399995412	CABINET	lure	n/a	n/a	n/a	1
83.118	0.733322048	COMPLIANCE	lure	n/a	n/a	n/a	1
83.851	0.666650817	SOCIOLOGY	lure	n/a	n/a	n/a	1
84.518	0.383328979	DESOLATION	lure	n/a	n/a	n/a	1
84.901	0.616659535	CLOTH	short	n/a	n/a	n/a	1
85.518	0.416660564	BREAKOUT	lure	n/a	n/a	n/a	1
85.935	0.46666402	COACHMAN	lure	n/a	n/a	n/a	1
86.401	0.683325656	GRINDSTONE	lure	n/a	n/a	n/a	1
87.084	0.333328742	ALCHEMIST	lure	n/a	n/a	n/a	1
87.418	0.483326485	ASTRONAUT	lure	n/a	n/a	n/a	1
87.901	0.633324527	TEMPEST	lure	n/a	n/a	n/a	1
88.534	0.434200146	SHOEMAKER	lure	n/a	n/a	n/a	1
88.969	0.732454663	SNAPBACK	lure	n/a	n/a	n/a	1
89.701	0.416654307	SABOTAGE	lure	n/a	n/a	n/a	1
90.118	0.71665423	WOODPECKER	lure	n/a	n/a	n/a	1
90.834	0.383333606	GRANDSTAND	lure	n/a	n/a	n/a	1
91.218	0.399991954	APPLICATOR	lure	n/a	n/a	n/a	1
91.618	0.466660112	HIGHSCHOOL	lure	n/a	n/a	n/a	1
92.084	0.36666454	PREHISTORY	lure	n/a	n/a	n/a	1
92.451	0.383328769	HAIRCUT	lure	n/a	n/a	n/a	1
92.834	0.566658313	ASSASSIN	lure	n/a	n/a	n/a	1
93.401	0.616652473	CHALK	short	n/a	n/a	n/a	1
94.018	0.716662705	ANYTHING	lure	n/a	n/a	n/a	1
94.734	0.583324824	ENERGY	lure	n/a	n/a	n/a	1
95.318	0.716658274	DEFENSE	lure	n/a	n/a	n/a	1
96.034	0.333322305	GRADER	lure	n/a	n/a	n/a	1
96.368	0.76665963	THUMBNAIL	lure	n/a	n/a	n/a	1
97.134	0.449990106	EXISTENCE	lure	n/a	n/a	n/a	1
97.584	0.433330789	WASHBOARD	lure	n/a	n/a	n/a	1
98.018	0.599988845	CAVEMEN	lure	n/a	n/a	n/a	1
98.618	0.749995192	MAILER	lure	n/a	n/a	n/a	1
99.368	0.733317936	WORKBOOK	lure	n/a	n/a	n/a	1
100.101	0.333334516	CERVIX	lure	n/a	n/a	n/a	1
100.434	0.499988004	UNIT	lure	n/a	n/a	n/a	1
100.934	0.566658771	COMMITTAL	lure	n/a	n/a	n/a	1
101.501	1.017651228	PEACH	fruit	616	2	2	1
102.519	0.565664631	PESSIMIST	lure	n/a	n/a	n/a	1
103.084	0.366657779	ORCHARD	lure	n/a	n/a	n/a	1
103.451	0.483326413	GRASSLAND	lure	n/a	n/a	n/a	1
103.934	0.466664874	ANTHILL	lure	n/a	n/a	n/a	1
104.401	0.683319444	SALTER	lure	n/a	n/a	n/a	1
105.084	0.766662603	BASIN	lure	n/a	n/a	n/a	1
105.851	0.599990974	ALMOND	lure	n/a	n/a	n/a	1
106.451	0.499993275	PACEMAKER	lure	n/a	n/a	n/a	1
106.951	0.699990821	FABLE	lure	n/a	n/a	n/a	1
107.651	0.666655534	PLUNGER	lure	n/a	n/a	n/a	1
108.318	0.783385225	PHONECALL	lure	n/a	n/a	n/a	1
109.101	0.666596015	COOP	lure	n/a	n/a	n/a	1
109.768	0.61665957	RAMBLER	lure	n/a	n/a	n/a	1
110.384	2.016638832	COAT	long	n/a	n/a	n/a	1
112.401	0.383328836	STOKER	lure	n/a	n/a	n/a	1
112.784	0.46665386	IMITATION	lure	n/a	n/a	n/a	1
113.251	0.349994541	TESTER	lure	n/a	n/a	n/a	1
113.601	0.499994184	CYNIC	lure	n/a	n/a	n/a	1
114.101	0.699990196	SNIFFER	lure	n/a	n/a	n/a	1
114.801	0.766661534	DOGHOUSE	lure	n/a	n/a	n/a	1
115.567	0.533384091	VILLAIN	lure	n/a	n/a	n/a	1
116.101	0.517736051	ADMIRAL	lure	n/a	n/a	n/a	1
116.619	0.54885694	POSTSCRIPT	lure	n/a	n/a	n/a	1
117.167	0.599987742	CONVECTION	lure	n/a	n/a	n/a	1
117.767	0.516664969	OPTIMIST	lure	n/a	n/a	n/a	1
118.284	0.616658646	HOSE	short	n/a	n/a	n/a	1
118.901	0.433327634	CHALICE	lure	n/a	n/a	n/a	1
119.334	0.700029908	MANHOOD	lure	n/a	n/a	n/a	1
120.034	0.616618476	EVERYONE	lure	n/a	n/a	n/a	1
120.651	0.583364043	SURREALISM	lure	n/a	n/a	n/a	1
121.234	0.616676368	TESTIMONY	lure	n/a	n/a	n/a	1
121.851	0.516602956	ONSLAUGHT	lure	n/a	n/a	n/a	1
122.367	0.466700034	GOODWILL	lure	n/a	n/a	n/a	1
122.834	0.483284075	ARCHANGEL	lure	n/a	n/a	n/a	1
123.317	0.416662103	FAIRWAY	lure	n/a	n/a	n/a	1
123.734	0.583360942	LITERACY	lure	n/a	n/a	n/a	1
124.317	0.416627567	BORROWER	lure	n/a	n/a	n/a	1
124.734	0.350031902	RAILHEAD	lure	n/a	n/a	n/a	1
125.084	0.733286234	ALIENATION	lure	n/a	n/a	n/a	1
125.817	0.733323843	VESTIBULE	lure	n/a	n/a	n/a	1
126.551	0.733321214	MOGUL	lure	n/a	n/a	n/a	1
127.284	2.016638844	JAIL	long	n/a	n/a	n/a	1
129.301	0.349994833	SCANDAL	lure	n/a	n/a	n/a	1
129.651	0.38332512	DISPENSER	lure	n/a	n/a	n/a	1
130.034	0.516664442	AUDITION	lure	n/a	n/a	n/a	1
130.551	0.699985893	REIN	lure	n/a	n/a	n/a	1
131.251	0.533390918	CITATION	lure	n/a	n/a	n/a	1
131.784	0.599932832	SLAB	lure	n/a	n/a	n/a	1
132.384	0.48332631	TABLOID	lure	n/a	n/a	n/a	1
132.867	0.633319143	AUTHORSHIP	lure	n/a	n/a	n/a	1
133.501	0.78332705	GOLF	lure	n/a	n/a	n/a	1
134.284	0.333324419	OVEN	lure	n/a	n/a	n/a	1
134.617	0.316664335	FOLIAGE	lure	n/a	n/a	n/a	1
134.934	0.516663784	COLLISION	lure	n/a	n/a	n/a	1
135.451	1.016649145	ORANGE	fruit	763	2	2	1
136.467	0.516662986	RELUCTANCE	lure	n/a	n/a	n/a	1
136.984	0.349992529	MAIDENHEAD	lure	n/a	n/a	n/a	1
137.334	0.549993052	TOPCOAT	lure	n/a	n/a	n/a	1
137.884	0.450354782	MIDGET	lure	n/a	n/a	n/a	1
138.334	0.682959409	PRECAUTION	lure	n/a	n/a	n/a	1
139.017	0.433331508	FIXATION	lure	n/a	n/a	n/a	1
139.45	0.549993524	DREAMWORLD	lure	n/a	n/a	n/a	1
140	0.516653965	ACCEPTANCE	lure	n/a	n/a	n/a	1
140.517	0.383332398	AUTONOMY	lure	n/a	n/a	n/a	1
140.9	0.335063644	ORE	lure	n/a	n/a	n/a	1
141.235	0.381658487	DIVISION	lure	n/a	n/a	n/a	1
141.617	0.533257139	OARSMAN	lure	n/a	n/a	n/a	1
142.15	0.699991237	SHOWPIECE	lure	n/a	n/a	n/a	1
142.85	0.383330429	SECURITY	lure	n/a	n/a	n/a	1
143.234	0.499994346	ACCOMPLICE	lure	n/a	n/a	n/a	1
143.734	2.066638031	STAKE	long	n/a	n/a	n/a	1
145.8	0.566661794	COMMUNISM	lure	n/a	n/a	n/a	1
146.367	0.366656265	CLOSEOUT	lure	n/a	n/a	n/a	1
146.734	0.683327613	PERFUSION	lure	n/a	n/a	n/a	1
147.417	0.433323711	MONUMENT	lure	n/a	n/a	n/a	1
147.85	0.41671875	LATECOMER	lure	n/a	n/a	n/a	1
148.267	0.499939764	CAPE	lure	n/a	n/a	n/a	1
148.767	0.483325829	PARKLAND	lure	n/a	n/a	n/a	1
149.25	0.399995956	GANGWAY	lure	n/a	n/a	n/a	1
149.65	0.61665749	BOUGH	lure	n/a	n/a	n/a	1
150.267	0.533383479	BUNKHOUSE	lure	n/a	n/a	n/a	1
150.8	0.649930914	ENCLAVE	lure	n/a	n/a	n/a	1
151.45	0.716663363	LOBE	lure	n/a	n/a	n/a	1
152.167	2.016636915	APRON	long	n/a	n/a	n/a	1
154.184	0.400037095	LIBRARIAN	lure	n/a	n/a	n/a	1
154.584	0.416678282	ROD	lure	n/a	n/a	n/a	1
155	0.48326365	REPROACH	lure	n/a	n/a	n/a	1
155.484	0.733323828	ANNUITY	lure	n/a	n/a	n/a	1
156.217	0.566656823	TRUSTEE	lure	n/a	n/a	n/a	1
156.784	0.599996502	CROSSBOW	lure	n/a	n/a	n/a	1
157.384	0.433325968	SIEGE	lure	n/a	n/a	n/a	1
157.817	0.716694841	NEWSPRINT	lure	n/a	n/a	n/a	1
158.534	0.316620582	DYSLEXIA	lure	n/a	n/a	n/a	1
158.85	0.733325068	PICKER	lure	n/a	n/a	n/a	1
159.584	0.566657445	INSPECTION	lure	n/a	n/a	n/a	1
160.15	0.602383765	AISLE	lure	n/a	n/a	n/a	1
160.753	1.014267443	CANTELOUPE	fruit	765	2	2	1
161.767	0.716651991	SCULPTOR	lure	n/a	n/a	n/a	1
162.483	0.399994753	DISSERVICE	lure	n/a	n/a	n/a	1
162.883	0.449991733	NATIVITY	lure	n/a	n/a	n/a	1
163.333	0.433330738	CORPORAL	lure	n/a	n/a	n/a	1
163.767	0.433324428	RITUAL	lure	n/a	n/a	n/a	1
164.2	0.316661942	MORTICIAN	lure	n/a	n/a	n/a	1
164.517	0.366664636	RETROSPECT	lure	n/a	n/a	n/a	1
164.883	0.54999535	PALETTE	lure	n/a	n/a	n/a	1
165.433	0.66665202	TIGHTWAD	lure	n/a	n/a	n/a	1
166.1	0.366664623	SWEETIE	lure	n/a	n/a	n/a	1
166.467	0.416662359	QUARRYMEN	lure	n/a	n/a	n/a	1
166.883	0.366662754	PARCEL	lure	n/a	n/a	n/a	1
167.25	0.583326566	INSIDER	lure	n/a	n/a	n/a	1
167.833	0.599989951	FABRIC	lure	n/a	n/a	n/a	1
168.433	0.333329629	SANDSTORM	lure	n/a	n/a	n/a	1
168.767	1.01664903	RASPBERRY	fruit	830	2	2	1
169.783	0.31666037	HANDSHAKE	lure	n/a	n/a	n/a	1
170.1	0.720107156	CRESCENDO	lure	n/a	n/a	n/a	1
170.82	0.599568603	BRUSHWORK	lure	n/a	n/a	n/a	1
171.42	0.330301993	PREVENTION	lure	n/a	n/a	n/a	1
171.75	0.366667058	STROLLER	lure	n/a	n/a	n/a	1
172.117	0.59998607	CHESSBOARD	lure	n/a	n/a	n/a	1
172.717	0.71666174	CLUBFOOT	lure	n/a	n/a	n/a	1
173.433	0.749989975	QUIRK	lure	n/a	n/a	n/a	1
174.183	0.383323546	AMP	lure	n/a	n/a	n/a	1
174.567	0.733327212	HURRICANE	lure	n/a	n/a	n/a	1
175.3	0.699993043	AUTOCRAT	lure	n/a	n/a	n/a	1
176	0.366658253	CREATURE	lure	n/a	n/a	n/a	1
176.367	0.333329636	MAMMAL	lure	n/a	n/a	n/a	1
176.7	2.016639965	RAINDROP	long	n/a	n/a	n/a	1
178.717	0.483328287	TRAUMA	lure	n/a	n/a	n/a	1
179.2	0.516653126	TOOTH	lure	n/a	n/a	n/a	1
179.717	0.749992265	IMMOBILITY	lure	n/a	n/a	n/a	1
180.467	0.433383556	WHOPPER	lure	n/a	n/a	n/a	1
180.9	0.63327178	FARMLAND	lure	n/a	n/a	n/a	1
181.533	0.433327782	SIBLING	lure	n/a	n/a	n/a	1
181.967	0.416660276	DUCKLING	lure	n/a	n/a	n/a	1
182.383	0.599992801	BOYHOOD	lure	n/a	n/a	n/a	1
182.983	0.583325293	HALTER	lure	n/a	n/a	n/a	1
183.567	0.733369575	DEFIANCE	lure	n/a	n/a	n/a	1
184.3	0.433275236	DIVORCEE	lure	n/a	n/a	n/a	1
184.733	1.016657992	LEMON	fruit	640	2	2	1
185.75	0.549989694	ENEMY	lure	n/a	n/a	n/a	1
186.3	0.449996015	CLOSET	lure	n/a	n/a	n/a	1
186.75	0.416658705	WASP	lure	n/a	n/a	n/a	1
187.166	0.366659406	COWBIRD	lure	n/a	n/a	n/a	1
187.533	0.733329802	DARKROOM	lure	n/a	n/a	n/a	1
188.266	0.683324473	PIGMENT	lure	n/a	n/a	n/a	1
188.95	0.333322151	MIRACLE	lure	n/a	n/a	n/a	1
189.283	0.749990157	BULLDOZER	lure	n/a	n/a	n/a	1
190.033	0.599997145	HANDYMEN	lure	n/a	n/a	n/a	1
190.633	0.449993461	STRETCHER	lure	n/a	n/a	n/a	1
191.083	0.516659939	COTTONTAIL	lure	n/a	n/a	n/a	1
191.6	0.783321172	INCREASE	lure	n/a	n/a	n/a	1
192.383	0.616654278	PEROXIDE	lure	n/a	n/a	n/a	1
193	0.6166638	DISC	short	n/a	n/a	n/a	1
193.616	0.533326015	MARINA	lure	n/a	n/a	n/a	1
194.15	0.383328408	FIREBRICK	lure	n/a	n/a	n/a	1
194.533	0.701195816	AIRFLOW	lure	n/a	n/a	n/a	1
195.234	0.398786505	THUG	lure	n/a	n/a	n/a	1
195.633	0.31666503	TRACTION	lure	n/a	n/a	n/a	1
195.95	0.63331859	MULE	lure	n/a	n/a	n/a	1
196.583	0.583325278	ALLIANCE	lure	n/a	n/a	n/a	1
197.166	0.766719385	HOBBYHORSE	lure	n/a	n/a	n/a	1
197.933	0.616601423	PRESIDENCY	lure	n/a	n/a	n/a	1
198.55	0.349989251	HEN	lure	n/a	n/a	n/a	1
198.9	0.433333052	MARKDOWN	lure	n/a	n/a	n/a	1
199.333	0.533326767	DECOY	lure	n/a	n/a	n/a	1
199.866	0.383327475	LADY	lure	n/a	n/a	n/a	1
200.25	0.533324226	VENERATION	lure	n/a	n/a	n/a	1
200.783	0.533364981	EARPHONE	lure	n/a	n/a	n/a	1
201.316	2.016599984	TRUCK	long	n/a	n/a	n/a	1
203.333	0.649990826	TURNOFF	lure	n/a	n/a	n/a	1
203.983	0.683384608	SEAFOOD	lure	n/a	n/a	n/a	1
204.666	0.499931723	MISSION	lure	n/a	n/a	n/a	1
205.166	0.566698564	LINEAGE	lure	n/a	n/a	n/a	1
205.733	0.416623869	GAZEBO	lure	n/a	n/a	n/a	1
206.15	0.483366264	TERROR	lure	n/a	n/a	n/a	1
206.633	0.699950586	CORDUROY	lure	n/a	n/a	n/a	1
207.333	0.483323291	DRAGON	lure	n/a	n/a	n/a	1
207.816	0.46670266	SPIDER	lure	n/a	n/a	n/a	1
208.283	0.383287893	WARFARE	lure	n/a	n/a	n/a	1
208.666	0.699993116	LADYBUG	lure	n/a	n/a	n/a	1
209.366	0.650049201	PORTAL	short	n/a	n/a	n/a	1
210.016	0.499934405	FOXHOLE	lure	n/a	n/a	n/a	1
210.516	0.533322954	PROPONENT	lure	n/a	n/a	n/a	1
211.049	0.583323908	PILGRIM	lure	n/a	n/a	n/a	1
211.633	0.616657793	ALLOWANCE	lure	n/a	n/a	n/a	1
212.249	0.316662575	TUTORIAL	lure	n/a	n/a	n/a	1
212.566	0.533325707	WATCHMAN	lure	n/a	n/a	n/a	1
213.099	0.53332608	SOMEONE	lure	n/a	n/a	n/a	1
213.633	0.51666591	POACHER	lure	n/a	n/a	n/a	1
214.149	0.749987259	DASHBOARD	lure	n/a	n/a	n/a	1
214.899	0.74999175	WOLFHOUND	lure	n/a	n/a	n/a	1
215.649	0.449992043	TABLEWARE	lure	n/a	n/a	n/a	1
216.099	0.61665789	WINE	lure	n/a	n/a	n/a	1
216.716	0.599994516	DENSITY	lure	n/a	n/a	n/a	1
217.316	0.433326769	DEW	lure	n/a	n/a	n/a	1
217.749	0.616655761	DRILL	short	n/a	n/a	n/a	1
218.366	0.399997134	CLINCHER	lure	n/a	n/a	n/a	1
218.766	0.33332727	COLLECTOR	lure	n/a	n/a	n/a	1
219.099	0.416723166	HEADMASTER	lure	n/a	n/a	n/a	1
219.516	0.71659521	DUPLEX	lure	n/a	n/a	n/a	1
220.233	0.49999258	SUNTAN	lure	n/a	n/a	n/a	1
220.733	0.533328319	MENTALITY	lure	n/a	n/a	n/a	1
221.266	0.6166516	INTEGER	lure	n/a	n/a	n/a	1
221.883	0.433332631	MICROSCOPY	lure	n/a	n/a	n/a	1
222.316	0.33332998	ZEST	lure	n/a	n/a	n/a	1
222.649	0.633323162	TEASER	lure	n/a	n/a	n/a	1
223.283	0.64999324	AGILITY	lure	n/a	n/a	n/a	1
223.933	0.349992494	ACTIVATION	lure	n/a	n/a	n/a	1
224.283	0.68332514	INFANTRY	lure	n/a	n/a	n/a	1
224.966	0.383327512	RESEARCHER	lure	n/a	n/a	n/a	1
225.349	0.483375573	SUNSHADE	lure	n/a	n/a	n/a	1
225.833	0.633276502	TISSUE	lure	n/a	n/a	n/a	1
226.466	n/a	SINNER	lure	n/a	n/a	n/a	1
238.016	0.616660768	PROSPERITY	lure	n/a	n/a	n/a	1
238.632	0.633328534	MINEFIELD	lure	n/a	n/a	n/a	1
239.266	0.35005013	TORMENTOR	lure	n/a	n/a	n/a	1
239.616	0.583323075	SPECTATOR	lure	n/a	n/a	n/a	1
240.199	0.349994874	DIAGRAM	lure	n/a	n/a	n/a	1
240.549	0.667810334	STOREFRONT	lure	n/a	n/a	n/a	1
241.217	0.715506597	VECTOR	lure	n/a	n/a	n/a	1
241.932	2.016583732	CARD	long	n/a	n/a	n/a	1
243.949	0.685256681	FLOTATION	lure	n/a	n/a	n/a	1
244.634	0.781388027	ORDEAL	lure	n/a	n/a	n/a	1
245.416	0.633326006	WATERSHED	lure	n/a	n/a	n/a	1
246.049	0.333330434	UNISON	lure	n/a	n/a	n/a	1
246.382	0.383381705	LOUGH	lure	n/a	n/a	n/a	1
246.766	0.666602464	STINGRAY	lure	n/a	n/a	n/a	1
247.432	0.666712233	JUDO	lure	n/a	n/a	n/a	1
248.099	0.383311474	THICKET	lure	n/a	n/a	n/a	1
248.482	0.550010332	COMPETENCE	lure	n/a	n/a	n/a	1
249.032	0.316652173	LONGSHIP	lure	n/a	n/a	n/a	1
249.349	0.599946919	NERVE	lure	n/a	n/a	n/a	1
249.949	0.383323487	OXEN	lure	n/a	n/a	n/a	1
250.332	2.016645416	APRON	long	n/a	n/a	n/a	1
252.349	0.666708845	BARROW	lure	n/a	n/a	n/a	1
253.016	0.666602551	SLACKER	lure	n/a	n/a	n/a	1
253.682	0.566707448	POTTER	lure	n/a	n/a	n/a	1
254.249	0.383325578	CHERUB	lure	n/a	n/a	n/a	1
254.632	0.549995421	TOMBOY	lure	n/a	n/a	n/a	1
255.182	0.64999788	WRONGDOER	lure	n/a	n/a	n/a	1
255.832	0.533317963	VIVACITY	lure	n/a	n/a	n/a	1
256.366	0.566666258	JACKET	lure	n/a	n/a	n/a	1
256.932	0.549995246	MUSTANG	lure	n/a	n/a	n/a	1
257.482	0.54999326	EXUBERANCE	lure	n/a	n/a	n/a	1
258.032	0.436495114	TRIPLET	lure	n/a	n/a	n/a	1
258.469	1.015580346	GRAPEFRUIT	fruit	552	2	2	1
259.484	0.64783539	SENDER	lure	n/a	n/a	n/a	1
260.132	0.433331168	BROCHURE	lure	n/a	n/a	n/a	1
260.565	0.366661824	MANDOLIN	lure	n/a	n/a	n/a	1
260.932	0.466660639	SAILOR	lure	n/a	n/a	n/a	1
261.399	0.533325324	AIRFORCE	lure	n/a	n/a	n/a	1
261.932	0.649990772	MERIDIAN	lure	n/a	n/a	n/a	1
262.582	0.549992053	REVERSION	lure	n/a	n/a	n/a	1
263.132	0.316721872	LARYNX	lure	n/a	n/a	n/a	1
263.449	0.616597192	MUDSLINGER	lure	n/a	n/a	n/a	1
264.065	0.400051407	LAWMAN	lure	n/a	n/a	n/a	1
264.465	0.483323944	ORPHANAGE	lure	n/a	n/a	n/a	1
264.949	0.666605193	NEWSCASTER	lure	n/a	n/a	n/a	1
265.615	0.649991388	ORGANISM	lure	n/a	n/a	n/a	1
266.265	0.683325599	LETTUCE	lure	n/a	n/a	n/a	1
266.949	0.616656547	DISC	short	n/a	n/a	n/a	1
267.565	0.416661577	MISCONDUCT	lure	n/a	n/a	n/a	1
267.982	0.599990964	BROW	lure	n/a	n/a	n/a	1
268.582	0.566716531	FORMULA	lure	n/a	n/a	n/a	1
269.149	0.333272552	SEXTON	lure	n/a	n/a	n/a	1
269.482	0.599988615	ABERRATION	lure	n/a	n/a	n/a	1
270.082	0.400055776	CATALOG	lure	n/a	n/a	n/a	1
270.482	0.61660089	TURNAROUND	lure	n/a	n/a	n/a	1
271.099	0.649990502	AVOCADO	lure	n/a	n/a	n/a	1
271.749	0.49999361	DETACHMENT	lure	n/a	n/a	n/a	1
272.249	0.566714351	SCHOOLWORK	lure	n/a	n/a	n/a	1
272.815	0.583328167	MARATHON	lure	n/a	n/a	n/a	1
273.399	0.62132316	HAT	lure	n/a	n/a	n/a	1
274.02	0.445273413	IVORY	lure	n/a	n/a	n/a	1
274.465	0.433327067	CANDY	lure	n/a	n/a	n/a	1
274.899	0.616655067	HOSE	short	n/a	n/a	n/a	1
275.515	0.650044514	AGITATION	lure	n/a	n/a	n/a	1
276.165	0.366611062	CHOICE	lure	n/a	n/a	n/a	1
276.532	0.666707185	RESPIRATOR	lure	n/a	n/a	n/a	1
277.199	0.366646774	BREAKAWAY	lure	n/a	n/a	n/a	1
277.565	0.349996383	WAND	lure	n/a	n/a	n/a	1
277.915	0.433291739	HUBCAP	lure	n/a	n/a	n/a	1
278.349	0.366716937	RHAPSODY	lure	n/a	n/a	n/a	1
278.715	0.733268164	DIALECTIC	lure	n/a	n/a	n/a	1
279.449	0.333321098	REPUBLIC	lure	n/a	n/a	n/a	1
279.782	0.400002214	INABILITY	lure	n/a	n/a	n/a	1
280.182	0.737690148	HEADWIND	lure	n/a	n/a	n/a	1
280.92	0.596569729	BREAKWATER	lure	n/a	n/a	n/a	1
281.516	0.632381269	REALIST	lure	n/a	n/a	n/a	1
282.149	0.749984933	LETTERMEN	lure	n/a	n/a	n/a	1
282.899	0.716657112	SLIPKNOT	lure	n/a	n/a	n/a	1
283.615	2.016637119	COAT	long	n/a	n/a	n/a	1
285.632	0.433328088	METHYL	lure	n/a	n/a	n/a	1
286.065	0.399991189	HERMIT	lure	n/a	n/a	n/a	1
286.465	0.35000329	OVERHAUL	lure	n/a	n/a	n/a	1
286.815	0.633360631	TROOPSHIP	lure	n/a	n/a	n/a	1
287.448	0.583289209	THEME	lure	n/a	n/a	n/a	1
288.032	0.587066785	LIFELINE	lure	n/a	n/a	n/a	1
288.619	0.56356507	INDUCTION	lure	n/a	n/a	n/a	1
289.182	0.366013913	FARMHAND	lure	n/a	n/a	n/a	1
289.548	0.566704355	STARFISH	lure	n/a	n/a	n/a	1
290.115	0.683319093	CONGRUENCE	lure	n/a	n/a	n/a	1
290.798	0.549949413	REDEMPTION	lure	n/a	n/a	n/a	1
291.348	0.450047821	RAINBOW	lure	n/a	n/a	n/a	1
291.798	2.016589126	TRUCK	long	n/a	n/a	n/a	1
293.815	0.61664965	BOOKKEEPER	lure	n/a	n/a	n/a	1
294.432	0.650063384	DOUCHE	lure	n/a	n/a	n/a	1
295.082	0.433260233	TANDEM	lure	n/a	n/a	n/a	1
295.515	0.316709766	TONGUE	lure	n/a	n/a	n/a	1
295.832	0.716654797	PYTHON	lure	n/a	n/a	n/a	1
296.548	0.649942241	TIER	lure	n/a	n/a	n/a	1
297.198	0.533374723	Un/aEST	lure	n/a	n/a	n/a	1
297.732	0.599947224	TECHNICIAN	lure	n/a	n/a	n/a	1
298.332	0.483321062	UNTRUTH	lure	n/a	n/a	n/a	1
298.815	0.366669322	MIDAIR	lure	n/a	n/a	n/a	1
299.182	0.699990403	HOUSE	lure	n/a	n/a	n/a	1
299.882	0.583371952	RINGSIDE	lure	n/a	n/a	n/a	1
300.465	0.616607184	HURDLE	short	n/a	n/a	n/a	1
301.082	0.5333317	MUTATION	lure	n/a	n/a	n/a	1
301.615	0.316655865	LATRINE	lure	n/a	n/a	n/a	1
301.932	0.683322383	PORPOISE	lure	n/a	n/a	n/a	1
302.615	0.46666628	COTE	lure	n/a	n/a	n/a	1
303.082	0.466719939	CROSSBEAM	lure	n/a	n/a	n/a	1
303.548	0.416596994	TOGA	lure	n/a	n/a	n/a	1
303.965	0.516665694	BLOTCH	lure	n/a	n/a	n/a	1
304.482	0.366662621	RECOUNT	lure	n/a	n/a	n/a	1
304.848	0.533326051	APPETIZER	lure	n/a	n/a	n/a	1
305.382	0.383318958	PERSUASION	lure	n/a	n/a	n/a	1
305.765	0.58332562	CHOWDER	lure	n/a	n/a	n/a	1
306.348	0.533521007	TURNABOUT	lure	n/a	n/a	n/a	1
306.882	0.716504835	TEETH	lure	n/a	n/a	n/a	1
307.598	0.666658204	PERMANENCE	lure	n/a	n/a	n/a	1
308.265	0.700007122	ATMOSPHERE	lure	n/a	n/a	n/a	1
308.965	0.616602597	HOOD	short	n/a	n/a	n/a	1
309.581	0.352566773	DISTEMPER	lure	n/a	n/a	n/a	1
309.934	0.580753207	GALLON	lure	n/a	n/a	n/a	1
310.515	0.466665041	DISLOYALTY	lure	n/a	n/a	n/a	1
310.981	0.616650019	VISTA	lure	n/a	n/a	n/a	1
311.598	0.599994206	INACCURACY	lure	n/a	n/a	n/a	1
312.198	0.733321224	STEELMAKER	lure	n/a	n/a	n/a	1
312.931	0.416669686	TAMBOURINE	lure	n/a	n/a	n/a	1
313.348	0.73331767	CLAUSE	lure	n/a	n/a	n/a	1
314.081	0.483327678	LATENCY	lure	n/a	n/a	n/a	1
314.565	0.716652604	SPINDLE	lure	n/a	n/a	n/a	1
315.281	0.583333422	MINDER	lure	n/a	n/a	n/a	1
315.865	0.33336271	WARLOCK	lure	n/a	n/a	n/a	1
316.198	0.766622523	CALYPSO	lure	n/a	n/a	n/a	1
316.965	0.366697796	JUDGMENT	lure	n/a	n/a	n/a	1
317.331	1.016617817	CHERRY	fruit	794	2	2	1
318.348	0.483325889	PLATFORM	lure	n/a	n/a	n/a	1
318.831	0.59999051	PEA	lure	n/a	n/a	n/a	1
319.431	0.435836261	REPENTANCE	lure	n/a	n/a	n/a	1
319.867	0.44754201	QUICKIE	lure	n/a	n/a	n/a	1
320.315	0.6499881	HONESTY	lure	n/a	n/a	n/a	1
320.965	0.399942966	FOLLOWER	lure	n/a	n/a	n/a	1
321.365	0.71668986	SEDAN	lure	n/a	n/a	n/a	1
322.081	0.366664031	CHALLENGER	lure	n/a	n/a	n/a	1
322.448	0.516620225	CONCEPTION	lure	n/a	n/a	n/a	1
322.965	0.633326192	CENTERLINE	lure	n/a	n/a	n/a	1
323.598	0.6833739	BOAT	lure	n/a	n/a	n/a	1
324.281	0.749941193	YARDSTICK	lure	n/a	n/a	n/a	1
325.031	0.500039802	BEET	lure	n/a	n/a	n/a	1
325.531	2.04992391	PURSE	long	n/a	n/a	n/a	1
327.581	0.466655809	EGGHEAD	lure	n/a	n/a	n/a	1
328.048	0.316705399	CROSSWALK	lure	n/a	n/a	n/a	1
328.365	0.483284435	INSTRUCTOR	lure	n/a	n/a	n/a	1
328.848	0.583331699	HISTORY	lure	n/a	n/a	n/a	1
329.431	0.399990561	STORK	lure	n/a	n/a	n/a	1
329.831	0.56666019	RECREATION	lure	n/a	n/a	n/a	1
330.398	0.433321421	ELATION	lure	n/a	n/a	n/a	1
330.831	0.46666025	SOLOIST	lure	n/a	n/a	n/a	1
331.298	0.683326026	COCKER	lure	n/a	n/a	n/a	1
331.981	0.61666139	BREADFRUIT	lure	n/a	n/a	n/a	1
332.598	0.683319279	HAIRDO	lure	n/a	n/a	n/a	1
333.281	0.500001225	PENTAGON	lure	n/a	n/a	n/a	1
333.781	0.616657974	MALLET	short	n/a	n/a	n/a	1
334.398	0.73336767	BACKSTROKE	lure	n/a	n/a	n/a	1
335.131	0.635878432	GEESE	lure	n/a	n/a	n/a	1
335.767	0.514054811	TERRAIN	lure	n/a	n/a	n/a	1
336.281	0.383378012	TEACUP	lure	n/a	n/a	n/a	1
336.664	0.487705367	TAXICAB	lure	n/a	n/a	n/a	1
337.152	0.412240534	MOONLIGHT	lure	n/a	n/a	n/a	1
337.564	0.549987456	BOURBON	lure	n/a	n/a	n/a	1
338.114	0.49999674	INDIGO	lure	n/a	n/a	n/a	1
338.614	0.58335721	BARBARISM	lure	n/a	n/a	n/a	1
339.198	0.333295745	SHAWL	lure	n/a	n/a	n/a	1
339.531	0.549992874	GREED	lure	n/a	n/a	n/a	1
340.081	0.699990085	SAPPHIRE	lure	n/a	n/a	n/a	1
340.781	0.733321923	SEAWEED	lure	n/a	n/a	n/a	1
341.514	0.749984592	WILDFOWL	lure	n/a	n/a	n/a	1
342.264	0.616662846	DRILL	short	n/a	n/a	n/a	1
342.881	0.533321994	PACIFIST	lure	n/a	n/a	n/a	1
343.414	0.64999741	REMOVAL	lure	n/a	n/a	n/a	1
344.064	0.470660687	COAL	lure	n/a	n/a	n/a	1
344.535	0.612655447	WORKPIECE	lure	n/a	n/a	n/a	1
345.148	0.583320988	BLURB	lure	n/a	n/a	n/a	1
345.731	0.499992639	ANTITOXIN	lure	n/a	n/a	n/a	1
346.231	0.733331707	AQUEDUCT	lure	n/a	n/a	n/a	1
346.964	0.666649727	LATCH	lure	n/a	n/a	n/a	1
347.631	0.502950393	SURCHARGE	lure	n/a	n/a	n/a	1
348.134	0.347047164	UPPERCUT	lure	n/a	n/a	n/a	1
348.481	0.633315527	SUNSTROKE	lure	n/a	n/a	n/a	1
349.114	0.750051587	LOOKOUT	lure	n/a	n/a	n/a	1
349.864	0.433273492	CAMPFIRE	lure	n/a	n/a	n/a	1
350.298	0.716658282	ROADWAY	lure	n/a	n/a	n/a	1
351.014	2.016633711	STEEL	long	n/a	n/a	n/a	1
353.031	0.41671055	YEAR	lure	n/a	n/a	n/a	1
353.448	0.716603936	LUGGAGE	lure	n/a	n/a	n/a	1
354.164	0.516660913	HAIRLINE	lure	n/a	n/a	n/a	1
354.681	0.633330898	QUESTIONER	lure	n/a	n/a	n/a	1
355.314	0.666651558	GROCERY	lure	n/a	n/a	n/a	1
355.981	0.451894139	COMPANION	lure	n/a	n/a	n/a	1
356.433	0.581426024	STRATEGY	lure	n/a	n/a	n/a	1
357.014	0.333327658	RECEPTION	lure	n/a	n/a	n/a	1
357.347	0.350000284	POSTMAN	lure	n/a	n/a	n/a	1
357.697	0.666651267	BELLBOY	lure	n/a	n/a	n/a	1
358.364	0.500001699	PILLBOX	lure	n/a	n/a	n/a	1
358.864	0.699986999	PASTEBOARD	lure	n/a	n/a	n/a	1
359.564	2.016636822	STAKE	long	n/a	n/a	n/a	1
361.581	0.616706847	GEOLOGIST	lure	n/a	n/a	n/a	1
362.197	0.66667524	DEADLINE	lure	n/a	n/a	n/a	1
362.864	0.766589438	PROXIMITY	lure	n/a	n/a	n/a	1
363.631	0.73332683	INSOLENCE	lure	n/a	n/a	n/a	1
364.364	0.716652866	PENTHOUSE	lure	n/a	n/a	n/a	1
365.081	0.416659681	PHYSICIAN	lure	n/a	n/a	n/a	1
365.497	0.600000357	EXTRACTOR	lure	n/a	n/a	n/a	1
366.097	0.616658537	NUANCE	lure	n/a	n/a	n/a	1
366.714	0.633320996	SELECTION	lure	n/a	n/a	n/a	1
367.347	0.366665305	EMPEROR	lure	n/a	n/a	n/a	1
367.714	0.616658169	BOTTLE	short	n/a	n/a	n/a	1
368.331	0.43332112	VOCABULARY	lure	n/a	n/a	n/a	1
368.764	0.44999154	GHETTO	lure	n/a	n/a	n/a	1
369.214	0.7166629	GOSPEL	lure	n/a	n/a	n/a	1
369.931	0.483329834	CHANDELIER	lure	n/a	n/a	n/a	1
370.414	0.449985159	MISSY	lure	n/a	n/a	n/a	1
370.864	0.333337811	RESONANCE	lure	n/a	n/a	n/a	1
371.197	0.566654987	UNIVERSITY	lure	n/a	n/a	n/a	1
371.764	0.449996711	DUET	lure	n/a	n/a	n/a	1
372.214	0.31670361	CRANIUM	lure	n/a	n/a	n/a	1
372.531	0.583323644	PACKET	lure	n/a	n/a	n/a	1
373.114	0.483287206	PLANET	lure	n/a	n/a	n/a	1
373.597	0.349995847	TIMEKEEPER	lure	n/a	n/a	n/a	1
373.947	0.616653044	SOUNDTRACK	lure	n/a	n/a	n/a	1
374.564	0.549997922	BACKLOG	lure	n/a	n/a	n/a	1
375.114	0.399991778	BOOKWORM	lure	n/a	n/a	n/a	1
375.514	1.016646802	CHERRY	fruit	555	2	2	1
376.531	0.466660365	TENANT	lure	n/a	n/a	n/a	1
376.997	0.466662844	SKYLIGHT	lure	n/a	n/a	n/a	1
377.464	0.684171238	ALABASTER	lure	n/a	n/a	n/a	1
378.148	0.332479085	INSANITY	lure	n/a	n/a	n/a	1
378.481	0.566658903	PURSUER	lure	n/a	n/a	n/a	1
379.047	0.683324026	QUICKSTEP	lure	n/a	n/a	n/a	1
379.731	0.41666463	NEURON	lure	n/a	n/a	n/a	1
380.147	0.749991791	STY	lure	n/a	n/a	n/a	1
380.897	0.733322586	CHOCOLATE	lure	n/a	n/a	n/a	1
381.63	0.316658957	BUSYBODY	lure	n/a	n/a	n/a	1
381.947	0.44999277	POWDERPUFF	lure	n/a	n/a	n/a	1
382.397	0.599992458	DRUMBEAT	lure	n/a	n/a	n/a	1
382.997	0.416660504	FIREFLY	lure	n/a	n/a	n/a	1
383.414	2.016647729	RAINDROP	long	n/a	n/a	n/a	1
385.43	0.599990137	SUNFISH	lure	n/a	n/a	n/a	1
386.03	0.649983819	PROTON	lure	n/a	n/a	n/a	1
386.68	0.716721528	GOVERNOR	lure	n/a	n/a	n/a	1
387.397	0.549928066	SUBTYPE	lure	n/a	n/a	n/a	1
387.947	0.583334107	NOVELTY	lure	n/a	n/a	n/a	1
388.53	0.416660667	PATROLMEN	lure	n/a	n/a	n/a	1
388.947	0.48332519	NYLON	lure	n/a	n/a	n/a	1
389.43	0.433329032	STAIRWAY	lure	n/a	n/a	n/a	1
389.864	0.566656988	ANTLER	lure	n/a	n/a	n/a	1
390.43	0.683326275	En/aOLLMENT	lure	n/a	n/a	n/a	1
391.114	0.3499931	KNOCKDOWN	lure	n/a	n/a	n/a	1
391.464	0.616659159	CHALK	short	n/a	n/a	n/a	1
392.08	0.499991312	CROISSANT	lure	n/a	n/a	n/a	1
392.58	0.316656712	SPILLWAY	lure	n/a	n/a	n/a	1
392.897	0.583327676	FEATHER	lure	n/a	n/a	n/a	1
393.48	0.433333822	PERIL	lure	n/a	n/a	n/a	1
393.914	0.366653134	PARAFFIN	lure	n/a	n/a	n/a	1
394.28	0.649998989	SAUSAGE	lure	n/a	n/a	n/a	1
394.93	0.749982231	JUNIPER	lure	n/a	n/a	n/a	1
395.68	0.433335872	FOOLERY	lure	n/a	n/a	n/a	1
396.114	0.599991708	OUTRIGGER	lure	n/a	n/a	n/a	1
396.714	0.449993547	ATOM	lure	n/a	n/a	n/a	1
397.164	0.633319524	MOOSE	lure	n/a	n/a	n/a	1
397.797	0.766659895	SHORTBREAD	lure	n/a	n/a	n/a	1
398.564	0.549985595	MUSKET	lure	n/a	n/a	n/a	1
399.114	0.516664112	MASON	lure	n/a	n/a	n/a	1
399.63	1.016651326	LIME	fruit	n/a	n/a	2	0
400.647	0.533323642	GASP	lure	86	2	n/a	0
401.18	0.583331302	SMASHER	lure	n/a	n/a	n/a	1
401.764	0.433323232	INSECURITY	lure	n/a	n/a	n/a	1
402.197	0.749996334	LIMERICK	lure	n/a	n/a	n/a	1
402.947	0.333320158	REDUCER	lure	n/a	n/a	n/a	1
403.28	0.416667374	FELLOWSHIP	lure	n/a	n/a	n/a	1
403.697	0.316656174	OUTBACK	lure	n/a	n/a	n/a	1
404.014	0.516664789	HESITATION	lure	n/a	n/a	n/a	1
404.53	0.533322071	BUTTERMILK	lure	n/a	n/a	n/a	1
405.064	0.383328367	RUBBER	lure	n/a	n/a	n/a	1
405.447	0.616658505	HEADACHE	lure	n/a	n/a	n/a	1
406.063	0.533324543	MICROPHONE	lure	n/a	n/a	n/a	1
406.597	0.549992337	STOVEPIPE	lure	n/a	n/a	n/a	1
407.147	0.333336902	AFFLICTION	lure	n/a	n/a	n/a	1
407.48	0.61665856	PORTAL	short	n/a	n/a	n/a	1
408.097	0.68332206	LEGEND	lure	n/a	n/a	n/a	1
408.78	0.700716021	NATURE	lure	n/a	n/a	n/a	1
409.481	0.74926035	DISCOVERY	lure	n/a	n/a	n/a	1
410.23	0.683322332	MIXTURE	lure	n/a	n/a	n/a	1
410.913	0.416661953	RATIO	lure	n/a	n/a	n/a	1
411.33	0.400000561	ATTAINMENT	lure	n/a	n/a	n/a	1
411.73	0.333324955	LUSTRE	lure	n/a	n/a	n/a	1
412.063	0.516658366	CUPCAKE	lure	n/a	n/a	n/a	1
412.58	0.516663015	INDENTURE	lure	n/a	n/a	n/a	1
413.097	0.616652203	ENSIGN	lure	n/a	n/a	n/a	1
413.713	0.383332425	PROTEIN	lure	n/a	n/a	n/a	1
414.097	0.633324077	SERVER	lure	n/a	n/a	n/a	1
414.73	0.633330002	OFFENDER	lure	n/a	n/a	n/a	1
415.363	0.416704894	BANDWAGON	lure	n/a	n/a	n/a	1
415.78	0.616609453	CLOTH	short	n/a	n/a	n/a	1
416.397	0.499989514	SEABOARD	lure	n/a	n/a	n/a	1
416.897	0.416660771	ANNEXATION	lure	n/a	n/a	n/a	1
417.313	0.599993966	LADYSHIP	lure	n/a	n/a	n/a	1
417.913	0.716654381	RABBI	lure	n/a	n/a	n/a	1
418.63	0.683333646	RECOURSE	lure	n/a	n/a	n/a	1
419.313	0.416714772	DOOR	lure	n/a	n/a	n/a	1
419.73	0.449930913	THEORY	lure	n/a	n/a	n/a	1
420.18	0.350045797	FALCON	lure	n/a	n/a	n/a	1
420.53	0.499942612	ABOLITION	lure	n/a	n/a	n/a	1
421.03	0.633326309	TRUNK	lure	n/a	n/a	n/a	1
421.663	0.735711272	SCHOOLMATE	lure	n/a	n/a	n/a	1
422.399	0.330948065	SHIRT	lure	n/a	n/a	n/a	1
422.73	0.316653346	BOOKLET	lure	n/a	n/a	n/a	1
423.047	0.59999203	In/aOAD	lure	n/a	n/a	n/a	1
423.647	0.366670061	REGISTRY	lure	n/a	n/a	n/a	1
424.013	1.049983896	CHERRY	fruit	712	2	2	1
425.063	0.735652945	CONCERT	lure	n/a	n/a	n/a	1
425.799	0.384556485	REALITY	lure	n/a	n/a	n/a	1
426.183	0.546570394	ROTATION	lure	n/a	n/a	n/a	1
426.73	0.533192392	STICKLER	lure	n/a	n/a	n/a	1
427.263	0.566650543	GAG	lure	n/a	n/a	n/a	1
427.83	0.583325245	DEFINITION	lure	n/a	n/a	n/a	1
428.413	0.566658694	FOREBEAR	lure	n/a	n/a	n/a	1
428.98	0.617510134	WARDEN	lure	n/a	n/a	n/a	1
429.597	0.532474842	SPA	lure	n/a	n/a	n/a	1
430.13	0.516662721	DEPICTION	lure	n/a	n/a	n/a	1
430.646	0.683328461	CONTOUR	lure	n/a	n/a	n/a	1
431.33	0.64998339	MEMBERSHIP	lure	n/a	n/a	n/a	1
431.98	0.668885383	PANTHEON	lure	n/a	n/a	n/a	1
432.649	1.015576235	CRANBERRY	fruit	948	2	2	1
433.664	0.548846992	PAYLOAD	lure	n/a	n/a	n/a	1
434.213	0.699992568	MINER	lure	n/a	n/a	n/a	1
434.913	0.349990364	UNANIMITY	lure	n/a	n/a	n/a	1
435.263	0.716659895	INFINITIVE	lure	n/a	n/a	n/a	1
435.98	0.633323064	REGIMENT	lure	n/a	n/a	n/a	1
436.613	0.499996359	RHINESTONE	lure	n/a	n/a	n/a	1
437.113	0.599993701	ESTEEM	lure	n/a	n/a	n/a	1
437.713	0.566656425	DENIM	lure	n/a	n/a	n/a	1
438.28	0.683317584	LIVER	lure	n/a	n/a	n/a	1
438.963	0.600894889	PULLOVER	lure	n/a	n/a	n/a	1
439.564	0.382424545	MUTT	lure	n/a	n/a	n/a	1
439.946	0.499993982	DEFAMATION	lure	n/a	n/a	n/a	1
440.446	0.716664191	FEAT	lure	n/a	n/a	n/a	1
441.163	2.01663832	MARKET	long	n/a	n/a	n/a	1
443.18	0.733318724	ESCALATOR	lure	n/a	n/a	n/a	1
443.913	0.799989963	CRITERIA	lure	n/a	n/a	n/a	1
444.713	0.433332667	PROPRIETOR	lure	n/a	n/a	n/a	1
445.146	0.39998594	COASTER	lure	n/a	n/a	n/a	1
445.546	0.554337059	CARGO	lure	n/a	n/a	n/a	1
446.101	0.695648896	AMPLITUDE	lure	n/a	n/a	n/a	1
446.796	0.599989549	INVERSION	lure	n/a	n/a	n/a	1
447.396	0.766664959	PAL	lure	n/a	n/a	n/a	1
448.163	0.716656272	PARKWAY	lure	n/a	n/a	n/a	1
448.88	0.716656964	SNOWFLAKE	lure	n/a	n/a	n/a	1
449.596	2.016632989	JAIL	long	n/a	n/a	n/a	1
451.613	0.533385545	JOKER	lure	n/a	n/a	n/a	1
452.146	0.467820716	INCLINE	lure	n/a	n/a	n/a	1
452.614	0.632110522	PREDATOR	lure	n/a	n/a	n/a	1
453.246	0.599991854	MORN	lure	n/a	n/a	n/a	1
453.846	0.716657219	IRONY	lure	n/a	n/a	n/a	1
454.563	0.333323296	NOOK	lure	n/a	n/a	n/a	1
454.896	0.366662032	PLAYWRIGHT	lure	n/a	n/a	n/a	1
455.263	0.383327328	TOUCHDOWN	lure	n/a	n/a	n/a	1
455.646	0.716840439	SMUDGE	lure	n/a	n/a	n/a	1
456.363	0.399818321	HOTHEAD	lure	n/a	n/a	n/a	1
456.763	0.71665139	FLINT	lure	n/a	n/a	n/a	1
457.479	0.549996176	DOWRY	lure	n/a	n/a	n/a	1
458.029	0.550028515	PLAQUE	lure	n/a	n/a	n/a	1
458.579	0.383291862	OBLIVION	lure	n/a	n/a	n/a	1
458.963	0.31669866	CLARITY	lure	n/a	n/a	n/a	1
459.279	0.366617994	UNDERGRAD	lure	n/a	n/a	n/a	1
459.646	0.416666569	PHRASEBOOK	lure	n/a	n/a	n/a	1
460.063	0.683327479	VANDALISM	lure	n/a	n/a	n/a	1
460.746	0.333326606	GRADUATION	lure	n/a	n/a	n/a	1
461.079	0.749985879	BUNNY	lure	n/a	n/a	n/a	1
461.829	0.788119969	DOMINATION	lure	n/a	n/a	n/a	1
462.618	0.428535975	PARSON	lure	n/a	n/a	n/a	1
463.046	0.583325796	BALE	lure	n/a	n/a	n/a	1
463.629	0.383358956	FAD	lure	n/a	n/a	n/a	1
464.013	0.533295019	ENTHUSIASM	lure	n/a	n/a	n/a	1
464.546	n/a	HARPER	lure	n/a	n/a	n/a	1