onset	duration	stim	cond	RT	resp	cresp	acc
4.045	0.315774079	CABBY	lure	n/a	n/a	n/a	1
4.361	0.749992698	SPECTRA	lure	n/a	n/a	n/a	1
5.111	0.36666012	KING	lure	n/a	n/a	n/a	1
5.477	0.433329105	CONSUMER	lure	n/a	n/a	n/a	1
5.911	0.566652882	BILLFOLD	lure	n/a	n/a	n/a	1
6.477	0.699990679	MANNER	lure	n/a	n/a	n/a	1
7.177	0.566656946	TONSIL	lure	n/a	n/a	n/a	1
7.744	0.584557638	SYMMETRY	lure	n/a	n/a	n/a	1
8.329	0.615434729	DRILL	short	n/a	n/a	n/a	1
8.944	0.516652282	ZONE	lure	n/a	n/a	n/a	1
9.461	0.616656446	DAYDREAM	lure	n/a	n/a	n/a	1
10.077	0.333334688	DEMOLITION	lure	n/a	n/a	n/a	1
10.411	0.733317108	LAWMEN	lure	n/a	n/a	n/a	1
11.144	0.733364038	INFERENCE	lure	n/a	n/a	n/a	1
11.877	0.483293669	AFFAIR	lure	n/a	n/a	n/a	1
12.361	0.58331749	SERGE	lure	n/a	n/a	n/a	1
12.944	0.449999437	FACADE	lure	n/a	n/a	n/a	1
13.394	0.599994673	PURIST	lure	n/a	n/a	n/a	1
13.994	0.699986064	OUTGROWTH	lure	n/a	n/a	n/a	1
14.694	0.516663873	PAYOFF	lure	n/a	n/a	n/a	1
15.211	0.383372478	GARMENT	lure	n/a	n/a	n/a	1
15.594	0.583273107	BOW	lure	n/a	n/a	n/a	1
16.177	0.366670566	BUTTONHOOK	lure	n/a	n/a	n/a	1
16.544	0.616657617	PORTAL	short	n/a	n/a	n/a	1
17.161	0.666651775	WHISKY	lure	n/a	n/a	n/a	1
17.827	0.333336258	EPICENTER	lure	n/a	n/a	n/a	1
18.161	0.699984657	SYMPOSIUM	lure	n/a	n/a	n/a	1
18.861	0.549994758	REDNECK	lure	n/a	n/a	n/a	1
19.411	0.499992072	HOLOGRAPH	lure	n/a	n/a	n/a	1
19.911	0.45162317	ACCORDANCE	lure	n/a	n/a	n/a	1
20.362	0.315081475	PREVISION	lure	n/a	n/a	n/a	1
20.677	0.749944766	SPARSITY	lure	n/a	n/a	n/a	1
21.427	0.333327582	CONTIGUITY	lure	n/a	n/a	n/a	1
21.761	0.616722289	ENSEMBLE	lure	n/a	n/a	n/a	1
22.377	0.616628223	CARNATION	lure	n/a	n/a	n/a	1
22.994	0.553492907	RIM	lure	n/a	n/a	n/a	1
23.547	0.429833974	EYELET	lure	n/a	n/a	n/a	1
23.977	0.416663163	SQUATTER	lure	n/a	n/a	n/a	1
24.394	0.533324073	PILLOWCASE	lure	n/a	n/a	n/a	1
24.927	1.04998921	KIWI	fruit	774	2	2	1
25.977	0.666673497	SLAPSTICK	lure	n/a	n/a	n/a	1
26.644	0.39993483	DINGO	lure	n/a	n/a	n/a	1
27.044	0.56665926	CONQUEST	lure	n/a	n/a	n/a	1
27.61	0.683368575	SCRUTINY	lure	n/a	n/a	n/a	1
28.294	0.58327958	CEREBELLUM	lure	n/a	n/a	n/a	1
28.877	0.74998801	CHEVRON	lure	n/a	n/a	n/a	1
29.627	0.316660012	EMBANKMENT	lure	n/a	n/a	n/a	1
29.944	0.316699131	CABDRIVER	lure	n/a	n/a	n/a	1
30.26	0.666623455	KEYPUNCH	lure	n/a	n/a	n/a	1
30.927	0.449990077	GENEROSITY	lure	n/a	n/a	n/a	1
31.377	0.400039405	CROQUET	lure	n/a	n/a	n/a	1
31.777	0.33328227	WISHBONE	lure	n/a	n/a	n/a	1
32.11	0.751151242	PRODUCT	lure	n/a	n/a	n/a	1
32.862	0.465497897	GIN	lure	n/a	n/a	n/a	1
33.327	1.016656317	BLUEBERRY	fruit	654	2	2	1
34.344	0.716659528	LEGION	lure	n/a	n/a	n/a	1
35.06	0.449995476	IMMINENCE	lure	n/a	n/a	n/a	1
35.51	0.483323648	FIDELITY	lure	n/a	n/a	n/a	1
35.994	0.699991109	DRAY	lure	n/a	n/a	n/a	1
36.694	0.483329413	DUSK	lure	n/a	n/a	n/a	1
37.177	0.483327094	SYNONYM	lure	n/a	n/a	n/a	1
37.66	0.483319431	BRAINWAVE	lure	n/a	n/a	n/a	1
38.144	0.583325387	DISK	lure	n/a	n/a	n/a	1
38.727	0.533325931	MANICURIST	lure	n/a	n/a	n/a	1
39.26	0.551500644	FRESHMEN	lure	n/a	n/a	n/a	1
39.812	0.315153887	BASEBOARD	lure	n/a	n/a	n/a	1
40.127	0.516660717	SHORTSTOP	lure	n/a	n/a	n/a	1
40.644	0.583324775	STOOGE	lure	n/a	n/a	n/a	1
41.227	0.349995741	INDENT	lure	n/a	n/a	n/a	1
41.577	2.050072235	JAIL	long	n/a	n/a	n/a	1
43.627	0.366560943	STORY	lure	n/a	n/a	n/a	1
43.994	0.34999548	NOUN	lure	n/a	n/a	n/a	1
44.344	0.400001719	SUBSYSTEM	lure	n/a	n/a	n/a	1
44.744	0.333329945	MAINLAND	lure	n/a	n/a	n/a	1
45.077	0.41665961	TREASURY	lure	n/a	n/a	n/a	1
45.494	0.433327308	HEADBOARD	lure	n/a	n/a	n/a	1
45.927	0.566658303	LOFT	lure	n/a	n/a	n/a	1
46.494	0.599986115	HIDEOUT	lure	n/a	n/a	n/a	1
47.094	0.466668275	ORATION	lure	n/a	n/a	n/a	1
47.56	0.666656313	PRIMACY	lure	n/a	n/a	n/a	1
48.227	0.433327349	UNDERWORLD	lure	n/a	n/a	n/a	1
48.66	0.399987405	PETUNIA	lure	n/a	n/a	n/a	1
49.06	0.417658793	BARTENDER	lure	n/a	n/a	n/a	1
49.478	0.615665173	CLOTH	short	n/a	n/a	n/a	1
50.093	0.449988957	MOM	lure	n/a	n/a	n/a	1
50.543	0.699990844	MAINSPRING	lure	n/a	n/a	n/a	1
51.243	0.366660775	HARDSHIP	lure	n/a	n/a	n/a	1
51.61	0.549995774	WORKER	lure	n/a	n/a	n/a	1
52.16	0.499991907	REBIRTH	lure	n/a	n/a	n/a	1
52.66	0.683329238	GRAVY	lure	n/a	n/a	n/a	1
53.343	0.56665925	UMPIRE	lure	n/a	n/a	n/a	1
53.91	0.566660857	DISHWATER	lure	n/a	n/a	n/a	1
54.477	0.666657504	SHRINKAGE	lure	n/a	n/a	n/a	1
55.143	0.416652216	ANAGRAM	lure	n/a	n/a	n/a	1
55.56	0.566661915	TREATY	lure	n/a	n/a	n/a	1
56.127	0.466665987	MASTERY	lure	n/a	n/a	n/a	1
56.593	0.433321456	COMBO	lure	n/a	n/a	n/a	1
57.027	0.583375402	GIST	lure	n/a	n/a	n/a	1
57.61	0.516609612	FRACTION	lure	n/a	n/a	n/a	1
58.127	2.049977862	MARKET	long	n/a	n/a	n/a	1
60.177	0.667859439	INVOCATION	lure	n/a	n/a	n/a	1
60.845	0.515458938	GLEN	lure	n/a	n/a	n/a	1
61.36	0.366657692	CAULDRON	lure	n/a	n/a	n/a	1
61.727	0.683370114	CLOVERLEAF	lure	n/a	n/a	n/a	1
62.41	0.483283738	BASKETWORK	lure	n/a	n/a	n/a	1
62.893	0.316653424	TEABAG	lure	n/a	n/a	n/a	1
63.21	0.733374485	BROOM	lure	n/a	n/a	n/a	1
63.943	0.466661323	NATURALISM	lure	n/a	n/a	n/a	1
64.41	0.499944085	BROADSHEET	lure	n/a	n/a	n/a	1
64.91	0.533382548	COMPETITOR	lure	n/a	n/a	n/a	1
65.443	0.416608594	ENMITY	lure	n/a	n/a	n/a	1
65.86	0.633325066	BEARD	lure	n/a	n/a	n/a	1
66.493	2.01663723	TRUCK	long	n/a	n/a	n/a	1
68.51	0.716660661	FATHERLAND	lure	n/a	n/a	n/a	1
69.227	0.583323165	TODDLER	lure	n/a	n/a	n/a	1
69.81	0.749984005	CROCODILE	lure	n/a	n/a	n/a	1
70.56	0.449995243	MOCHA	lure	n/a	n/a	n/a	1
71.01	0.450728792	PERSONNEL	lure	n/a	n/a	n/a	1
71.461	0.649254691	BOOKER	lure	n/a	n/a	n/a	1
72.11	0.433327239	CONGESTION	lure	n/a	n/a	n/a	1
72.543	0.699990428	ROADHOUSE	lure	n/a	n/a	n/a	1
73.243	0.683329517	VASSAL	lure	n/a	n/a	n/a	1
73.926	0.566657046	COASTGUARD	lure	n/a	n/a	n/a	1
74.493	2.01663892	PURSE	long	n/a	n/a	n/a	1
76.51	0.416664519	CUSTOMER	lure	n/a	n/a	n/a	1
76.926	0.466655962	COCKROACH	lure	n/a	n/a	n/a	1
77.393	0.616664347	ADJECTIVE	lure	n/a	n/a	n/a	1
78.01	0.383368963	CUBIST	lure	n/a	n/a	n/a	1
78.393	0.68328271	PRAYER	lure	n/a	n/a	n/a	1
79.076	0.399989617	RAWHIDE	lure	n/a	n/a	n/a	1
79.476	0.433326183	SPECIMEN	lure	n/a	n/a	n/a	1
79.91	0.716707871	FOREGROUND	lure	n/a	n/a	n/a	1
80.626	0.699946258	ADORATION	lure	n/a	n/a	n/a	1
81.326	0.683318135	AMAZEMENT	lure	n/a	n/a	n/a	1
82.01	0.316700168	STREET	lure	n/a	n/a	n/a	1
82.326	2.016604096	STEEL	long	n/a	n/a	n/a	1
84.343	0.466695512	SEDATIVE	lure	n/a	n/a	n/a	1
84.81	0.666666237	SHEET	lure	n/a	n/a	n/a	1
85.476	0.699943216	REUNION	lure	n/a	n/a	n/a	1
86.176	0.616662896	STARDUST	lure	n/a	n/a	n/a	1
86.793	0.566656127	BISHOP	lure	n/a	n/a	n/a	1
87.36	0.54999473	PIANO	lure	n/a	n/a	n/a	1
87.91	0.666653543	SUBJECTION	lure	n/a	n/a	n/a	1
88.576	0.566656855	WHARF	lure	n/a	n/a	n/a	1
89.143	0.633330344	BOOKMOBILE	lure	n/a	n/a	n/a	1
89.776	0.566655421	SEAWAY	lure	n/a	n/a	n/a	1
90.343	1.017825683	APPLE	fruit	910	2	2	1
91.361	0.382158127	XYLOPHONE	lure	n/a	n/a	n/a	1
91.743	0.399996522	VULTURE	lure	n/a	n/a	n/a	1
92.143	0.749989575	AUTOPSY	lure	n/a	n/a	n/a	1
92.893	0.483322229	COMMENTARY	lure	n/a	n/a	n/a	1
93.376	0.433324973	JEWELER	lure	n/a	n/a	n/a	1
93.81	0.433543272	LUNGPOWER	lure	n/a	n/a	n/a	1
94.243	0.699774949	BARRAGE	lure	n/a	n/a	n/a	1
94.943	0.533331269	DRIFTER	lure	n/a	n/a	n/a	1
95.476	0.53332815	HYDROPLANE	lure	n/a	n/a	n/a	1
96.01	0.683321202	TUNIC	lure	n/a	n/a	n/a	1
96.693	0.583326137	DEMOGRAPHY	lure	n/a	n/a	n/a	1
97.276	0.600030242	BACKBOARD	lure	n/a	n/a	n/a	1
97.876	0.766616259	SANDMAN	lure	n/a	n/a	n/a	1
98.643	0.616656663	HOOD	short	n/a	n/a	n/a	1
99.259	0.366708882	AWNING	lure	n/a	n/a	n/a	1
99.626	0.716610158	INITIATOR	lure	n/a	n/a	n/a	1
100.343	0.71672051	STRIPE	lure	n/a	n/a	n/a	1
101.059	0.649973288	ZEALOT	lure	n/a	n/a	n/a	1
101.709	0.683283878	FLATTOP	lure	n/a	n/a	n/a	1
102.393	0.416652083	PERMAFROST	lure	n/a	n/a	n/a	1
102.809	0.716659138	HALFBACK	lure	n/a	n/a	n/a	1
103.526	0.683322144	PARITY	lure	n/a	n/a	n/a	1
104.209	0.516663602	OUNCE	lure	n/a	n/a	n/a	1
104.726	0.650040269	SEMINARY	lure	n/a	n/a	n/a	1
105.376	0.366608716	GOLDMINE	lure	n/a	n/a	n/a	1
105.743	0.684718105	COUNTDOWN	lure	n/a	n/a	n/a	1
106.427	0.448609453	BIRDBATH	lure	n/a	n/a	n/a	1
106.876	0.616657384	DISC	short	n/a	n/a	n/a	1
107.493	0.349990503	BANKRUPTCY	lure	n/a	n/a	n/a	1
107.843	0.399999287	CORTEX	lure	n/a	n/a	n/a	1
108.243	0.483371718	LOCALITY	lure	n/a	n/a	n/a	1
108.726	0.433276669	BANDMASTER	lure	n/a	n/a	n/a	1
109.159	0.649996415	TRANSPORT	lure	n/a	n/a	n/a	1
109.809	0.449989127	MORON	lure	n/a	n/a	n/a	1
110.259	0.48333222	LANDROVER	lure	n/a	n/a	n/a	1
110.743	0.53332667	INTERLINK	lure	n/a	n/a	n/a	1
111.276	0.533320387	VOYAGER	lure	n/a	n/a	n/a	1
111.809	0.449998854	BRUNT	lure	n/a	n/a	n/a	1
112.259	0.399994693	IMBALANCE	lure	n/a	n/a	n/a	1
112.659	0.333320168	CRUCIFIX	lure	n/a	n/a	n/a	1
112.993	0.383328329	DUCKBILL	lure	n/a	n/a	n/a	1
113.376	0.633326941	BAGGAGE	lure	n/a	n/a	n/a	1
114.009	0.483327232	LINKAGE	lure	n/a	n/a	n/a	1
114.493	0.350047693	POSSE	lure	n/a	n/a	n/a	1
114.843	0.616611621	CHALK	short	n/a	n/a	n/a	1
115.459	0.683315763	COUNTY	lure	n/a	n/a	n/a	1
116.143	0.58401143	JIFFY	lure	n/a	n/a	n/a	1
116.727	0.432649338	LAVA	lure	n/a	n/a	n/a	1
117.159	0.716657878	LIBERATION	lure	n/a	n/a	n/a	1
117.876	0.683365596	STOOL	lure	n/a	n/a	n/a	1
118.559	0.666606369	DIVA	lure	n/a	n/a	n/a	1
119.226	0.666665917	RAZOR	lure	n/a	n/a	n/a	1
119.893	0.483370438	COWHERD	lure	n/a	n/a	n/a	1
120.376	0.499992389	PENCE	lure	n/a	n/a	n/a	1
120.876	0.633275545	CAROL	lure	n/a	n/a	n/a	1
121.509	0.550039524	WAISTCOAT	lure	n/a	n/a	n/a	1
122.059	0.653254943	MAYONNAISE	lure	n/a	n/a	n/a	1
122.712	0.346683608	AIRMEN	lure	n/a	n/a	n/a	1
123.059	0.61667012	HURDLE	short	n/a	n/a	n/a	1
123.676	0.716647315	SIXPENCE	lure	n/a	n/a	n/a	1
124.392	0.683329507	INDUCEMENT	lure	n/a	n/a	n/a	1
125.076	0.633316071	SATURATION	lure	n/a	n/a	n/a	1
125.709	0.766660429	MART	lure	n/a	n/a	n/a	1
126.476	0.549995293	LEEWAY	lure	n/a	n/a	n/a	1
127.026	0.71665631	VENGEANCE	lure	n/a	n/a	n/a	1
127.742	0.599985471	FIN	lure	n/a	n/a	n/a	1
128.342	0.716668734	REJECTION	lure	n/a	n/a	n/a	1
129.059	0.466697145	ADJUNCT	lure	n/a	n/a	n/a	1
129.526	0.41661367	SPOOF	lure	n/a	n/a	n/a	1
129.942	0.366666044	CRACKPOT	lure	n/a	n/a	n/a	1
130.309	0.549989492	YEAST	lure	n/a	n/a	n/a	1
130.859	0.383326453	BOOSTER	lure	n/a	n/a	n/a	1
131.242	2.050023878	COAT	long	n/a	n/a	n/a	1
133.292	0.703358295	RECRUITER	lure	n/a	n/a	n/a	1
133.996	0.513244975	BRIMSTONE	lure	n/a	n/a	n/a	1
134.509	0.716649794	CATHEDRAL	lure	n/a	n/a	n/a	1
135.226	0.333336036	RECAP	lure	n/a	n/a	n/a	1
135.559	0.31670774	WASTEWATER	lure	n/a	n/a	n/a	1
135.876	0.566656551	EVENING	lure	n/a	n/a	n/a	1
136.442	0.483279717	NEWSLETTER	lure	n/a	n/a	n/a	1
136.926	0.554026731	TWILIGHT	lure	n/a	n/a	n/a	1
137.48	0.647572322	ARK	lure	n/a	n/a	n/a	1
138.127	0.79838013	CANNONBALL	lure	n/a	n/a	n/a	1
138.926	0.699987357	BONANZA	lure	n/a	n/a	n/a	1
139.626	1.016689208	BLACKBERRY	fruit	627	2	2	1
140.642	0.533286705	SPRINGTIME	lure	n/a	n/a	n/a	1
141.176	0.516661829	HURLER	lure	n/a	n/a	n/a	1
141.692	0.599995008	STEPFATHER	lure	n/a	n/a	n/a	1
142.292	0.50003929	STATURE	lure	n/a	n/a	n/a	1
142.792	0.733277464	LIBRARY	lure	n/a	n/a	n/a	1
143.526	0.716657838	EYELINER	lure	n/a	n/a	n/a	1
144.242	0.349994762	MATADOR	lure	n/a	n/a	n/a	1
144.592	0.783385927	CASUALTY	lure	n/a	n/a	n/a	1
145.376	0.549927667	BACKBONE	lure	n/a	n/a	n/a	1
145.925	0.749984867	EXTINCTION	lure	n/a	n/a	n/a	1
146.675	0.400001776	SURGERY	lure	n/a	n/a	n/a	1
147.075	0.666650621	ARMOR	lure	n/a	n/a	n/a	1
147.742	0.616664099	MALLET	short	n/a	n/a	n/a	1
148.359	0.550036437	HEIR	lure	n/a	n/a	n/a	1
148.909	0.583282282	JELLY	lure	n/a	n/a	n/a	1
149.492	0.750044573	COSTUME	lure	n/a	n/a	n/a	1
150.242	0.53326234	CHEESE	lure	n/a	n/a	n/a	1
150.775	0.649994033	TERRORISM	lure	n/a	n/a	n/a	1
151.425	0.649997314	SEASON	lure	n/a	n/a	n/a	1
152.075	0.63336864	PAINKILLER	lure	n/a	n/a	n/a	1
152.709	0.433282015	ENTITY	lure	n/a	n/a	n/a	1
153.142	0.533321717	METABOLISM	lure	n/a	n/a	n/a	1
153.675	0.666654254	PINSTRIPE	lure	n/a	n/a	n/a	1
154.342	0.716657059	POLYTHEISM	lure	n/a	n/a	n/a	1
155.059	0.616659128	STOREROOM	lure	n/a	n/a	n/a	1
155.675	0.55000096	MIDDEN	lure	n/a	n/a	n/a	1
156.225	2.016638501	RAINDROP	long	n/a	n/a	n/a	1
158.242	0.60004664	FOOTER	lure	n/a	n/a	n/a	1
158.842	0.499983736	OCTAGON	lure	n/a	n/a	n/a	1
159.342	0.466614721	GOVERNANCE	lure	n/a	n/a	n/a	1
159.809	0.44998657	COVERLET	lure	n/a	n/a	n/a	1
160.259	0.549993703	CHARMER	lure	n/a	n/a	n/a	1
160.809	0.316660007	LUNG	lure	n/a	n/a	n/a	1
161.125	0.599999927	SHOESTRING	lure	n/a	n/a	n/a	1
161.725	0.733318045	OCCURRENCE	lure	n/a	n/a	n/a	1
162.459	0.44999942	CROUTON	lure	n/a	n/a	n/a	1
162.909	0.383319757	SIDEWALK	lure	n/a	n/a	n/a	1
163.292	0.649995207	ADVENT	lure	n/a	n/a	n/a	1
163.942	0.366665621	NIGHTFALL	lure	n/a	n/a	n/a	1
164.309	0.616651785	HOSE	short	n/a	n/a	n/a	1
164.925	0.666664549	OPULENCE	lure	n/a	n/a	n/a	1
165.592	0.566658845	CRESCENT	lure	n/a	n/a	n/a	1
166.159	0.61669958	TROUT	lure	n/a	n/a	n/a	1
166.775	0.516610281	NIGHTCLUB	lure	n/a	n/a	n/a	1
167.292	0.650000068	WARRANTY	lure	n/a	n/a	n/a	1
167.942	0.416654496	DEMANDER	lure	n/a	n/a	n/a	1
168.359	0.719580243	TEA	lure	n/a	n/a	n/a	1
169.078	0.363740646	BADMINTON	lure	n/a	n/a	n/a	1
169.442	0.416656117	PANCAKE	lure	n/a	n/a	n/a	1
169.858	0.466660091	HOOP	lure	n/a	n/a	n/a	1
170.325	0.650040669	THEW	lure	n/a	n/a	n/a	1
170.975	0.699992862	JUNCTION	lure	n/a	n/a	n/a	1
171.675	0.399992056	BEARSKIN	lure	n/a	n/a	n/a	1
172.075	0.468819391	TURBOJET	lure	n/a	n/a	n/a	1
172.544	1.014448415	BLACKBERRY	fruit	549	2	2	1
173.558	0.566704782	SAVIOR	lure	n/a	n/a	n/a	1
174.125	0.649941444	SUBSTRATE	lure	n/a	n/a	n/a	1
174.775	0.749994298	BEATER	lure	n/a	n/a	n/a	1
175.525	0.699990947	BIRDIE	lure	n/a	n/a	n/a	1
176.225	0.48332829	MARKUP	lure	n/a	n/a	n/a	1
176.708	0.383321239	FURY	lure	n/a	n/a	n/a	1
177.092	0.399994832	PRECEDENT	lure	n/a	n/a	n/a	1
177.492	0.366666714	MINUET	lure	n/a	n/a	n/a	1
177.858	0.416661471	HEADLINE	lure	n/a	n/a	n/a	1
178.275	0.516701056	ASSISTANT	lure	n/a	n/a	n/a	1
178.792	0.749948837	ENLISTMENT	lure	n/a	n/a	n/a	1
179.542	0.516654864	PATTERN	lure	n/a	n/a	n/a	1
180.058	0.733326115	MADMEN	lure	n/a	n/a	n/a	1
180.792	0.51670675	REBEL	lure	n/a	n/a	n/a	1
181.308	2.016596987	CARD	long	n/a	n/a	n/a	1
183.325	0.666653631	GRAIN	lure	n/a	n/a	n/a	1
183.992	0.349998777	MENAGERIE	lure	n/a	n/a	n/a	1
184.342	0.71665637	JOYSTICK	lure	n/a	n/a	n/a	1
185.058	0.749981803	TRAVESTY	lure	n/a	n/a	n/a	1
185.808	0.566667258	PAPERWORK	lure	n/a	n/a	n/a	1
186.375	0.750029567	IRONSIDE	lure	n/a	n/a	n/a	1
187.125	0.433279635	SOLEMNITY	lure	n/a	n/a	n/a	1
187.558	0.616659907	BOOZER	lure	n/a	n/a	n/a	1
188.175	0.66670433	FEMINISM	lure	n/a	n/a	n/a	1
188.842	0.649951062	ASSAILANT	lure	n/a	n/a	n/a	1
189.492	1.016646608	PEAR	fruit	n/a	n/a	2	0
190.508	0.733321395	WEAVER	lure	353	2	n/a	0
191.242	0.666665656	GLACIER	lure	n/a	n/a	n/a	1
191.908	0.349995832	SPOUSE	lure	n/a	n/a	n/a	1
192.258	0.31742037	HEADSTONE	lure	n/a	n/a	n/a	1
192.576	0.699225962	MIDST	lure	n/a	n/a	n/a	1
193.275	0.616664202	PROCESSOR	lure	n/a	n/a	n/a	1
193.892	0.483323095	JACKRABBIT	lure	n/a	n/a	n/a	1
194.375	0.583366913	MEDICATION	lure	n/a	n/a	n/a	1
194.958	0.516622282	AMNESTY	lure	n/a	n/a	n/a	1
195.475	0.533324685	PRIMATE	lure	n/a	n/a	n/a	1
196.008	0.599984453	SEVERANCE	lure	n/a	n/a	n/a	1
196.608	0.666657047	ALGEBRA	lure	n/a	n/a	n/a	1
197.275	0.766663206	MACHINIST	lure	n/a	n/a	n/a	1
198.041	0.616654699	BOTTLE	short	n/a	n/a	n/a	1
198.658	0.533324235	JASMINE	lure	n/a	n/a	n/a	1
199.191	0.733321773	MERCHANT	lure	n/a	n/a	n/a	1
199.925	0.416666477	QUARTET	lure	n/a	n/a	n/a	1
200.341	0.3833317	FIREBRAND	lure	n/a	n/a	n/a	1
200.725	0.516659224	SONNET	lure	n/a	n/a	n/a	1
201.241	0.533326549	PATRONAGE	lure	n/a	n/a	n/a	1
201.775	0.433369655	HUNTSMAN	lure	n/a	n/a	n/a	1
202.208	0.34994412	DISSUASION	lure	n/a	n/a	n/a	1
202.558	0.533334113	WORKDAY	lure	n/a	n/a	n/a	1
203.091	0.433320062	SIMULATOR	lure	n/a	n/a	n/a	1
203.525	0.699998825	EXERTION	lure	n/a	n/a	n/a	1
204.225	0.619268648	MARTYRDOM	lure	n/a	n/a	n/a	1
204.844	0.432338937	VIOLINIST	lure	n/a	n/a	n/a	1
205.276	0.715034114	DRUMSTICK	lure	n/a	n/a	n/a	1
205.991	0.716701356	MADMAN	lure	n/a	n/a	n/a	1
206.708	2.016595164	APRON	long	n/a	n/a	n/a	1
208.725	0.649990915	LINGUIST	lure	n/a	n/a	n/a	1
209.375	0.583319745	TRAVELER	lure	n/a	n/a	n/a	1
209.958	0.433324683	DEDICATION	lure	n/a	n/a	n/a	1
210.391	0.46666919	ATHLETE	lure	n/a	n/a	n/a	1
210.858	0.333319898	ANNOTATION	lure	n/a	n/a	n/a	1
211.191	0.716664494	PARABLE	lure	n/a	n/a	n/a	1
211.908	0.383324929	LABYRINTH	lure	n/a	n/a	n/a	1
212.291	0.516657751	OFFSPRING	lure	n/a	n/a	n/a	1
212.808	0.433327304	SELLOUT	lure	n/a	n/a	n/a	1
213.241	0.466666762	GUESTHOUSE	lure	n/a	n/a	n/a	1
213.708	0.383319428	OMEN	lure	n/a	n/a	n/a	1
214.091	0.366662047	PURSUANCE	lure	n/a	n/a	n/a	1
214.458	2.016642221	STAKE	long	n/a	n/a	n/a	1
216.475	0.54999102	RACEHORSE	lure	n/a	n/a	n/a	1
217.025	0.566659911	SEVERITY	lure	n/a	n/a	n/a	1
217.591	0.733329638	MALICE	lure	n/a	n/a	n/a	1
218.325	0.533321489	OFFICER	lure	n/a	n/a	n/a	1
218.858	0.416656349	MURK	lure	n/a	n/a	n/a	1
219.274	0.666658347	SIDEKICK	lure	n/a	n/a	n/a	1
219.941	0.533328443	PERIODICAL	lure	n/a	n/a	n/a	1
220.474	0.683320929	STATIONERY	lure	n/a	n/a	n/a	1
221.158	0.549997894	AUNTIE	lure	n/a	n/a	n/a	1
221.708	0.333323521	POOF	lure	n/a	n/a	n/a	1
222.041	0.720930646	GUERRILLA	lure	n/a	n/a	n/a	1
222.762	0.395725851	RAMPAGE	lure	n/a	n/a	n/a	1
223.158	0.483327559	CLIPBOARD	lure	n/a	n/a	n/a	1
223.641	0.433323563	ADDICTION	lure	n/a	n/a	n/a	1
224.074	0.683324078	MOUTH	lure	n/a	n/a	n/a	1
224.758	0.683321895	ABSENCE	lure	n/a	n/a	n/a	1
225.441	0.734877103	TURNPIKE	lure	n/a	n/a	n/a	1
226.176	0.648490807	HANDBRAKE	lure	n/a	n/a	n/a	1
226.824	n/a	PUSHCART	lure	n/a	n/a	n/a	1
238.024	0.599996036	SKIRMISH	lure	n/a	n/a	n/a	1
238.624	0.733320959	VIABILITY	lure	n/a	n/a	n/a	1
239.358	0.599997147	PASTRY	lure	n/a	n/a	n/a	1
239.958	0.483323039	MOUSETRAP	lure	n/a	n/a	n/a	1
240.441	0.366661222	FOREST	lure	n/a	n/a	n/a	1
240.808	0.683620155	CAESAREAN	lure	n/a	n/a	n/a	1
241.491	0.3497012	WIDTH	lure	n/a	n/a	n/a	1
241.841	1.016649752	PINEAPPLE	fruit	628	2	2	1
242.858	0.749993511	VERANDA	lure	n/a	n/a	n/a	1
243.607	0.74999165	HAWKER	lure	n/a	n/a	n/a	1
244.357	0.699987449	COMPOSITOR	lure	n/a	n/a	n/a	1
245.057	0.449997019	PARISH	lure	n/a	n/a	n/a	1
245.507	0.749983487	CORROSION	lure	n/a	n/a	n/a	1
246.257	0.433327423	MIDLAND	lure	n/a	n/a	n/a	1
246.691	0.349997243	POLYGAMY	lure	n/a	n/a	n/a	1
247.041	0.517274242	LIEUTENANT	lure	n/a	n/a	n/a	1
247.558	0.399375722	TRINITY	lure	n/a	n/a	n/a	1
247.957	0.516665788	JARGON	lure	n/a	n/a	n/a	1
248.474	0.333386513	BIRTHDAY	lure	n/a	n/a	n/a	1
248.807	0.66664443	MOONSTONE	lure	n/a	n/a	n/a	1
249.474	0.583281946	OBJECTOR	lure	n/a	n/a	n/a	1
250.057	2.016634724	APRON	long	n/a	n/a	n/a	1
252.074	0.533329965	COMMANDER	lure	n/a	n/a	n/a	1
252.607	0.333385414	RANSOM	lure	n/a	n/a	n/a	1
252.941	0.433370664	TRADESMEN	lure	n/a	n/a	n/a	1
253.374	0.549891655	PROMOTER	lure	n/a	n/a	n/a	1
253.924	0.550038042	MORROW	lure	n/a	n/a	n/a	1
254.474	0.683275383	CORNBREAD	lure	n/a	n/a	n/a	1
255.157	0.399994964	REVOLUTION	lure	n/a	n/a	n/a	1
255.557	0.783321837	VOTER	lure	n/a	n/a	n/a	1
256.341	0.7167148	NIGHTSHADE	lure	n/a	n/a	n/a	1
257.057	0.466693947	DISREPAIR	lure	n/a	n/a	n/a	1
257.524	0.700102393	OPERATOR	lure	n/a	n/a	n/a	1
258.224	2.016440368	RAINDROP	long	n/a	n/a	n/a	1
260.241	0.46665911	EYEPIECE	lure	n/a	n/a	n/a	1
260.707	0.666699574	HOPSCOTCH	lure	n/a	n/a	n/a	1
261.374	0.400040434	FLAMINGO	lure	n/a	n/a	n/a	1
261.774	0.349949524	AGREEMENT	lure	n/a	n/a	n/a	1
262.124	0.649948819	OVERLAP	lure	n/a	n/a	n/a	1
262.774	0.733321821	PARTICIPLE	lure	n/a	n/a	n/a	1
263.507	0.633328113	TURTLENECK	lure	n/a	n/a	n/a	1
264.141	0.599986126	TRIPOD	lure	n/a	n/a	n/a	1
264.741	0.699991209	WAISTBAND	lure	n/a	n/a	n/a	1
265.441	0.516662025	TRENCH	lure	n/a	n/a	n/a	1
265.957	0.550038281	REFERENT	lure	n/a	n/a	n/a	1
266.507	0.616613455	HOSE	short	n/a	n/a	n/a	1
267.124	0.433325153	BURLAP	lure	n/a	n/a	n/a	1
267.557	0.616661588	SIDELIGHT	lure	n/a	n/a	n/a	1
268.174	0.683318538	FARMSTEAD	lure	n/a	n/a	n/a	1
268.857	0.766655654	CASTOR	lure	n/a	n/a	n/a	1
269.624	0.366663765	SWORDSMAN	lure	n/a	n/a	n/a	1
269.99	0.566661492	POPULISM	lure	n/a	n/a	n/a	1
270.557	0.616659292	ARCHWAY	lure	n/a	n/a	n/a	1
271.174	0.48336932	HABIT	lure	n/a	n/a	n/a	1
271.657	0.766612745	IMMERSION	lure	n/a	n/a	n/a	1
272.424	0.700030023	ALLIGATOR	lure	n/a	n/a	n/a	1
273.124	0.449954169	CREATOR	lure	n/a	n/a	n/a	1
273.574	0.316705181	COLESLAW	lure	n/a	n/a	n/a	1
273.89	0.749948644	PEN	lure	n/a	n/a	n/a	1
274.64	2.049969385	JAIL	long	n/a	n/a	n/a	1
276.69	0.466661809	GALLANTRY	lure	n/a	n/a	n/a	1
277.157	0.349995556	SPACESHIP	lure	n/a	n/a	n/a	1
277.507	0.683370546	PEPPERMINT	lure	n/a	n/a	n/a	1
278.19	0.749944161	POTHOLE	lure	n/a	n/a	n/a	1
278.94	0.333380965	BIB	lure	n/a	n/a	n/a	1
279.274	0.699935335	BALLPLAYER	lure	n/a	n/a	n/a	1
279.974	0.499994921	TIEBREAKER	lure	n/a	n/a	n/a	1
280.474	0.716657721	OBOE	lure	n/a	n/a	n/a	1
281.19	0.549985541	OMELETTE	lure	n/a	n/a	n/a	1
281.74	0.666709341	STRATEGIST	lure	n/a	n/a	n/a	1
282.407	0.700002107	INFLATION	lure	n/a	n/a	n/a	1
283.107	0.616595248	DISC	short	n/a	n/a	n/a	1
283.724	0.400000862	BURR	lure	n/a	n/a	n/a	1
284.124	0.533380682	REDWOOD	lure	n/a	n/a	n/a	1
284.657	0.516604675	CHAIRMAN	lure	n/a	n/a	n/a	1
285.174	0.36666215	TYCOON	lure	n/a	n/a	n/a	1
285.54	0.666714238	SALINE	lure	n/a	n/a	n/a	1
286.207	0.617519698	NYMPH	lure	n/a	n/a	n/a	1
286.824	0.632405188	TUBE	lure	n/a	n/a	n/a	1
287.457	0.366661556	BURGUNDY	lure	n/a	n/a	n/a	1
287.824	0.349994674	HAMLET	lure	n/a	n/a	n/a	1
288.174	0.316706293	DAFFODIL	lure	n/a	n/a	n/a	1
288.49	0.449951807	COMPETENCY	lure	n/a	n/a	n/a	1
288.94	0.466660333	PRUDENCE	lure	n/a	n/a	n/a	1
289.407	0.7166567	MOSQUE	lure	n/a	n/a	n/a	1
290.124	0.533327086	BODY	lure	n/a	n/a	n/a	1
290.657	0.500050678	KOALA	lure	n/a	n/a	n/a	1
291.157	0.333268283	EMPIRICISM	lure	n/a	n/a	n/a	1
291.49	1.016699108	MULBERRY	fruit	651	2	2	1
292.507	0.499945627	BLOWGUN	lure	n/a	n/a	n/a	1
293.007	0.719919226	SPINACH	lure	n/a	n/a	n/a	1
293.727	0.350562365	TRAPDOOR	lure	n/a	n/a	n/a	1
294.077	0.679498786	OATH	lure	n/a	n/a	n/a	1
294.757	0.683323568	STRUDEL	lure	n/a	n/a	n/a	1
295.44	0.366659035	PASSERBY	lure	n/a	n/a	n/a	1
295.807	0.533371133	COWGIRL	lure	n/a	n/a	n/a	1
296.34	0.616616001	COUNSELLOR	lure	n/a	n/a	n/a	1
296.957	0.766654023	FESTIVAL	lure	n/a	n/a	n/a	1
297.723	0.749991978	FOOTBRIDGE	lure	n/a	n/a	n/a	1
298.473	0.633379264	YEARBOOK	lure	n/a	n/a	n/a	1
299.107	0.683312328	VISITATION	lure	n/a	n/a	n/a	1
299.79	2.016596651	CARD	long	n/a	n/a	n/a	1
301.807	0.38332771	GUARDSMAN	lure	n/a	n/a	n/a	1
302.19	0.399994044	PARANOIA	lure	n/a	n/a	n/a	1
302.59	0.633368311	PANDA	lure	n/a	n/a	n/a	1
303.223	0.399947505	GUNMAN	lure	n/a	n/a	n/a	1
303.623	0.400057871	ARBOR	lure	n/a	n/a	n/a	1
304.023	0.449993433	HABITAT	lure	n/a	n/a	n/a	1
304.473	0.703520043	TUB	lure	n/a	n/a	n/a	1
305.177	0.429738192	SLANDERER	lure	n/a	n/a	n/a	1
305.607	0.649991667	SUPEREGO	lure	n/a	n/a	n/a	1
306.257	0.466659138	BOXCAR	lure	n/a	n/a	n/a	1
306.723	0.533325469	MARL	lure	n/a	n/a	n/a	1
307.257	0.349995874	SPANGLE	lure	n/a	n/a	n/a	1
307.607	1.016653634	PEACH	fruit	854	2	2	1
308.623	0.633318771	DOORNAIL	lure	n/a	n/a	n/a	1
309.257	0.749994744	OBJECTION	lure	n/a	n/a	n/a	1
310.007	0.499993918	LOTION	lure	n/a	n/a	n/a	1
310.507	0.383326934	ZEBRA	lure	n/a	n/a	n/a	1
310.89	0.716659498	SCIENTIST	lure	n/a	n/a	n/a	1
311.607	0.749982802	IMPORTER	lure	n/a	n/a	n/a	1
312.357	0.383331874	ROYALTY	lure	n/a	n/a	n/a	1
312.74	0.616658615	FRICTION	lure	n/a	n/a	n/a	1
313.357	0.416660635	FORERUNNER	lure	n/a	n/a	n/a	1
313.773	0.533327286	CHICKWEED	lure	n/a	n/a	n/a	1
314.307	0.749989266	ASPIRATION	lure	n/a	n/a	n/a	1
315.057	0.336254205	RIVALRY	lure	n/a	n/a	n/a	1
315.393	0.368562193	WINDOW	lure	n/a	n/a	n/a	1
315.761	0.613567692	PORTAL	short	n/a	n/a	n/a	1
316.375	0.714922806	TOXIN	lure	n/a	n/a	n/a	1
317.09	0.31666158	CENSORSHIP	lure	n/a	n/a	n/a	1
317.406	0.683318915	ACTOR	lure	n/a	n/a	n/a	1
318.09	0.499998542	EMERGENCE	lure	n/a	n/a	n/a	1
318.59	0.616655943	DUNGEON	lure	n/a	n/a	n/a	1
319.206	0.649992782	TUMBLEWEED	lure	n/a	n/a	n/a	1
319.856	0.699989611	HATCHERY	lure	n/a	n/a	n/a	1
320.556	0.449995208	ZOO	lure	n/a	n/a	n/a	1
321.006	0.733317077	FATE	lure	n/a	n/a	n/a	1
321.74	0.433335122	SANDBANK	lure	n/a	n/a	n/a	1
322.173	0.549991619	EQUIPMENT	lure	n/a	n/a	n/a	1
322.723	0.349992794	CONTEST	lure	n/a	n/a	n/a	1
323.073	0.366661035	FLUTIST	lure	n/a	n/a	n/a	1
323.44	0.366661896	TOOTHBRUSH	lure	n/a	n/a	n/a	1
323.806	1.01665401	NECTARINE	fruit	726	2	2	1
324.823	0.716657876	DOWNFALL	lure	n/a	n/a	n/a	1
325.54	0.633378725	ARMISTICE	lure	n/a	n/a	n/a	1
326.173	0.483332904	PIANIST	lure	n/a	n/a	n/a	1
326.656	0.39993663	MERCER	lure	n/a	n/a	n/a	1
327.056	0.349990177	INCISOR	lure	n/a	n/a	n/a	1
327.406	0.383328836	LAWN	lure	n/a	n/a	n/a	1
327.79	0.683377248	AIRSHIP	lure	n/a	n/a	n/a	1
328.473	0.566604664	ABSTINENCE	lure	n/a	n/a	n/a	1
329.04	0.58339527	RUNABOUT	lure	n/a	n/a	n/a	1
329.623	0.416653637	TUNNEL	lure	n/a	n/a	n/a	1
330.04	0.368804151	MARIGOLD	lure	n/a	n/a	n/a	1
330.409	0.397869787	INDIGENCE	lure	n/a	n/a	n/a	1
330.806	0.55325805	GLEE	lure	n/a	n/a	n/a	1
331.36	0.596646768	RESTRAINT	lure	n/a	n/a	n/a	1
331.956	0.650072088	ZOMBIE	lure	n/a	n/a	n/a	1
332.606	0.649954833	DRILL	short	n/a	n/a	n/a	1
333.256	0.499951585	GUM	lure	n/a	n/a	n/a	1
333.756	0.583380774	MAGNET	lure	n/a	n/a	n/a	1
334.34	0.552895381	CUBBYHOLE	lure	n/a	n/a	n/a	1
334.893	0.680420937	VENDOR	lure	n/a	n/a	n/a	1
335.573	0.53332601	INFIELD	lure	n/a	n/a	n/a	1
336.106	0.399938246	RUNT	lure	n/a	n/a	n/a	1
336.506	0.649992154	WHIRLWIND	lure	n/a	n/a	n/a	1
337.156	0.733324021	HORSESHOE	lure	n/a	n/a	n/a	1
337.89	0.549985753	ALIGNMENT	lure	n/a	n/a	n/a	1
338.44	0.699994843	DOGWOOD	lure	n/a	n/a	n/a	1
339.14	0.349995934	MINK	lure	n/a	n/a	n/a	1
339.49	0.316662189	WAYSIDE	lure	n/a	n/a	n/a	1
339.806	0.550049463	BESTSELLER	lure	n/a	n/a	n/a	1
340.356	0.416604938	PINBALL	lure	n/a	n/a	n/a	1
340.773	2.016640712	TRUCK	long	n/a	n/a	n/a	1
342.789	0.73337779	MEMENTO	lure	n/a	n/a	n/a	1
343.523	0.59993528	WEATHERMAN	lure	n/a	n/a	n/a	1
344.123	0.566659197	WHALEBONE	lure	n/a	n/a	n/a	1
344.689	0.766657176	OVERTONE	lure	n/a	n/a	n/a	1
345.456	0.467375122	NEWSMEN	lure	n/a	n/a	n/a	1
345.923	0.532789696	MOLEHILL	lure	n/a	n/a	n/a	1
346.456	0.599810747	MICRON	lure	n/a	n/a	n/a	1
347.056	0.716660884	WISP	lure	n/a	n/a	n/a	1
347.773	0.516657083	GRAM	lure	n/a	n/a	n/a	1
348.289	0.550048667	KNACK	lure	n/a	n/a	n/a	1
348.839	2.016583649	PURSE	long	n/a	n/a	n/a	1
350.856	0.583372856	SLUGGER	lure	n/a	n/a	n/a	1
351.439	0.466669501	RESIN	lure	n/a	n/a	n/a	1
351.906	0.51660365	NIRVANA	lure	n/a	n/a	n/a	1
352.423	0.766701492	REMINDER	lure	n/a	n/a	n/a	1
353.189	0.699946976	COMMA	lure	n/a	n/a	n/a	1
353.889	0.716652162	ONION	lure	n/a	n/a	n/a	1
354.606	0.750039878	HAILSTONE	lure	n/a	n/a	n/a	1
355.356	0.583275144	INEQUALITY	lure	n/a	n/a	n/a	1
355.939	0.466705712	PRANKSTER	lure	n/a	n/a	n/a	1
356.406	0.533340083	INSTRUMENT	lure	n/a	n/a	n/a	1
356.939	0.616602597	CHALK	short	n/a	n/a	n/a	1
357.556	0.650045286	MONASTERY	lure	n/a	n/a	n/a	1
358.206	0.516658986	LIGHTSHIP	lure	n/a	n/a	n/a	1
358.723	0.766645685	APPARENCY	lure	n/a	n/a	n/a	1
359.489	0.683342663	CHOPSTICK	lure	n/a	n/a	n/a	1
360.173	0.683320058	SAVER	lure	n/a	n/a	n/a	1
360.856	0.333326012	SIFTER	lure	n/a	n/a	n/a	1
361.189	0.649932497	SYNDROME	lure	n/a	n/a	n/a	1
361.839	0.649992331	WORKSHOP	lure	n/a	n/a	n/a	1
362.489	0.650049812	MANOR	lure	n/a	n/a	n/a	1
363.139	0.61660063	HORN	lure	n/a	n/a	n/a	1
363.756	0.649990086	CATNIP	lure	n/a	n/a	n/a	1
364.406	0.716659402	SLEIGH	lure	n/a	n/a	n/a	1
365.123	0.699985689	ANKLE	lure	n/a	n/a	n/a	1
365.822	0.616661269	CLOTH	short	n/a	n/a	n/a	1
366.439	0.533384838	FLAGPOLE	lure	n/a	n/a	n/a	1
366.973	0.616658174	TRIO	lure	n/a	n/a	n/a	1
367.589	0.483267831	STRAW	lure	n/a	n/a	n/a	1
368.072	0.521135009	LEMONADE	lure	n/a	n/a	n/a	1
368.594	0.328856074	FORESIGHT	lure	n/a	n/a	n/a	1
368.922	0.71669837	TURKEY	lure	n/a	n/a	n/a	1
369.639	0.500010736	WASHOUT	lure	n/a	n/a	n/a	1
370.139	0.683320521	COCOA	lure	n/a	n/a	n/a	1
370.822	0.633310802	EDITION	lure	n/a	n/a	n/a	1
371.456	0.633275247	MANIAC	lure	n/a	n/a	n/a	1
372.089	0.53338689	FALLOFF	lure	n/a	n/a	n/a	1
372.622	0.416652	BEACON	lure	n/a	n/a	n/a	1
373.039	0.633324793	GAGGLE	lure	n/a	n/a	n/a	1
373.672	0.633368708	OPPONENT	lure	n/a	n/a	n/a	1
374.306	0.616569898	HURDLE	short	n/a	n/a	n/a	1
374.922	0.433325532	DIVERGENCE	lure	n/a	n/a	n/a	1
375.356	0.683321876	POSTURE	lure	n/a	n/a	n/a	1
376.039	0.449994143	HORSEHAIR	lure	n/a	n/a	n/a	1
376.489	0.366662074	PARENTHOOD	lure	n/a	n/a	n/a	1
376.856	0.600054691	ENJOYMENT	lure	n/a	n/a	n/a	1
377.456	0.749989477	COMMOTION	lure	n/a	n/a	n/a	1
378.206	0.749930063	SHOWMAN	lure	n/a	n/a	n/a	1
378.956	0.683379955	PRESCHOOL	lure	n/a	n/a	n/a	1
379.639	0.383270079	KEEPSAKE	lure	n/a	n/a	n/a	1
380.022	0.550058296	HEXAGON	lure	n/a	n/a	n/a	1
380.572	0.666661433	ACADEMY	lure	n/a	n/a	n/a	1
381.239	0.316628805	VIBRATION	lure	n/a	n/a	n/a	1
381.556	0.599954047	TRUCE	lure	n/a	n/a	n/a	1
382.156	0.649991065	SCORPION	lure	n/a	n/a	n/a	1
382.806	2.016642215	MARKET	long	n/a	n/a	n/a	1
384.822	0.433327048	PULSATION	lure	n/a	n/a	n/a	1
385.256	0.716655182	CONCEIT	lure	n/a	n/a	n/a	1
385.972	0.499992808	AMNESIA	lure	n/a	n/a	n/a	1
386.472	0.549992386	ORIOLE	lure	n/a	n/a	n/a	1
387.022	0.399996304	SMITH	lure	n/a	n/a	n/a	1
387.422	0.601223954	CONVENTION	lure	n/a	n/a	n/a	1
388.023	0.635567999	TANKER	lure	n/a	n/a	n/a	1
388.659	0.600569452	MATRIARCH	lure	n/a	n/a	n/a	1
389.26	0.48034116	PUPPETEER	lure	n/a	n/a	n/a	1
389.74	0.482784213	CAFETERIA	lure	n/a	n/a	n/a	1
390.223	0.549465289	THRIFT	lure	n/a	n/a	n/a	1
390.772	0.383330488	ESCAPEE	lure	n/a	n/a	n/a	1
391.155	1.016647563	LEMON	fruit	633	2	2	1
392.172	0.466663521	FERN	lure	n/a	n/a	n/a	1
392.639	0.416661116	THEOREM	lure	n/a	n/a	n/a	1
393.055	0.521353187	ERASURE	lure	n/a	n/a	n/a	1
393.577	0.71257362	ALE	lure	n/a	n/a	n/a	1
394.289	0.3327172	TRAFFIC	lure	n/a	n/a	n/a	1
394.622	0.41666473	MAIZE	lure	n/a	n/a	n/a	1
395.039	0.316660018	MELODRAMA	lure	n/a	n/a	n/a	1
395.355	0.483326049	CELERY	lure	n/a	n/a	n/a	1
395.839	0.633327725	HOROSCOPE	lure	n/a	n/a	n/a	1
396.472	0.716656578	CELL	lure	n/a	n/a	n/a	1
397.189	0.349993165	CARNIVAL	lure	n/a	n/a	n/a	1
397.539	0.733324748	SPACER	lure	n/a	n/a	n/a	1
398.272	0.483325982	PEEPER	lure	n/a	n/a	n/a	1
398.755	0.649990866	DETERRENCE	lure	n/a	n/a	n/a	1
399.405	0.666660292	LAXATIVE	lure	n/a	n/a	n/a	1
400.072	2.050025279	STAKE	long	n/a	n/a	n/a	1
402.122	0.633270425	TURNOUT	lure	n/a	n/a	n/a	1
402.755	0.349995039	DESTINY	lure	n/a	n/a	n/a	1
403.105	0.733376591	MILDEW	lure	n/a	n/a	n/a	1
403.839	0.716599148	NOVICE	lure	n/a	n/a	n/a	1
404.555	0.350000704	FOOTNOTE	lure	n/a	n/a	n/a	1
404.905	0.616656771	ROOD	lure	n/a	n/a	n/a	1
405.522	0.58332537	KITCHEN	lure	n/a	n/a	n/a	1
406.105	0.699990167	MOTHERHOOD	lure	n/a	n/a	n/a	1
406.805	0.549992887	EXCURSION	lure	n/a	n/a	n/a	1
407.355	0.599990305	SUSPECT	lure	n/a	n/a	n/a	1
407.955	0.450053296	IMPAIRMENT	lure	n/a	n/a	n/a	1
408.405	0.616600174	HOOD	short	n/a	n/a	n/a	1
409.022	0.649991622	BEESWAX	lure	n/a	n/a	n/a	1
409.672	0.466657227	STERNUM	lure	n/a	n/a	n/a	1
410.139	0.383330716	EDUCATOR	lure	n/a	n/a	n/a	1
410.522	0.533327148	INFORMER	lure	n/a	n/a	n/a	1
411.055	0.633322452	PAPERBOY	lure	n/a	n/a	n/a	1
411.689	0.633378938	WRECKAGE	lure	n/a	n/a	n/a	1
412.322	0.55000101	BLOCKHOUSE	lure	n/a	n/a	n/a	1
412.872	0.716594505	ENZYME	lure	n/a	n/a	n/a	1
413.589	0.750046971	SHEEN	lure	n/a	n/a	n/a	1
414.339	0.616657675	OPENER	lure	n/a	n/a	n/a	1
414.955	0.635526845	GOOGLY	lure	n/a	n/a	n/a	1
415.591	0.433567225	SCAVENGER	lure	n/a	n/a	n/a	1
416.024	0.380831416	FOOTPAD	lure	n/a	n/a	n/a	1
416.405	0.499992194	BALLOONIST	lure	n/a	n/a	n/a	1
416.905	0.616660064	MALLET	short	n/a	n/a	n/a	1
417.522	0.633379151	CHIEFTAIN	lure	n/a	n/a	n/a	1
418.155	0.749932683	LOGGER	lure	n/a	n/a	n/a	1
418.905	0.485880881	DARTBOARD	lure	n/a	n/a	n/a	1
419.391	0.697438122	CARTOON	lure	n/a	n/a	n/a	1
420.088	0.649988251	POTPOURRI	lure	n/a	n/a	n/a	1
420.738	0.73332481	VANE	lure	n/a	n/a	n/a	1
421.472	0.483326062	PAGEANT	lure	n/a	n/a	n/a	1
421.955	0.549989059	IVY	lure	n/a	n/a	n/a	1
422.505	0.349997808	CAFE	lure	n/a	n/a	n/a	1
422.855	0.483328964	FEDERATION	lure	n/a	n/a	n/a	1
423.338	0.616658941	TRAY	lure	n/a	n/a	n/a	1
423.955	0.53332495	EGO	lure	n/a	n/a	n/a	1
424.488	0.400038736	SIDESHOW	lure	n/a	n/a	n/a	1
424.888	2.016596077	STEEL	long	n/a	n/a	n/a	1
426.905	0.53336781	BUILDER	lure	n/a	n/a	n/a	1
427.438	0.58334337	BRIDESMAID	lure	n/a	n/a	n/a	1
428.022	0.683307757	BUFFALO	lure	n/a	n/a	n/a	1
428.705	0.38332682	BIGHEAD	lure	n/a	n/a	n/a	1
429.088	0.466614178	ZOOLOGIST	lure	n/a	n/a	n/a	1
429.555	0.533377273	FIANCEE	lure	n/a	n/a	n/a	1
430.088	0.649945114	PARABOLA	lure	n/a	n/a	n/a	1
430.738	0.433319866	TIPPER	lure	n/a	n/a	n/a	1
431.172	0.41666444	VOLATILITY	lure	n/a	n/a	n/a	1
431.588	0.61665781	LEISURE	lure	n/a	n/a	n/a	1
432.205	0.533328076	APPLIANCE	lure	n/a	n/a	n/a	1
432.738	1.016652526	LIME	fruit	715	2	2	1
433.755	0.749990126	BEHALF	lure	n/a	n/a	n/a	1
434.505	0.333331111	ORGAN	lure	n/a	n/a	n/a	1
434.838	0.533325033	SYMPTOM	lure	n/a	n/a	n/a	1
435.372	0.483370585	ICEMAN	lure	n/a	n/a	n/a	1
435.855	0.716658663	PRAGMATIST	lure	n/a	n/a	n/a	1
436.572	0.654261842	FOREWORD	lure	n/a	n/a	n/a	1
437.226	0.796349837	GLOOM	lure	n/a	n/a	n/a	1
438.022	0.615978898	CROSSROAD	lure	n/a	n/a	n/a	1
438.638	0.316662741	BALSAM	lure	n/a	n/a	n/a	1
438.955	0.549987739	ASTRONOMER	lure	n/a	n/a	n/a	1
439.505	0.7666581	HANDMAIDEN	lure	n/a	n/a	n/a	1
440.271	0.383331405	CLOAKROOM	lure	n/a	n/a	n/a	1
440.655	0.683370137	FLYER	lure	n/a	n/a	n/a	1
441.338	2.016594155	COAT	long	n/a	n/a	n/a	1
443.355	0.616714786	SMALLPOX	lure	n/a	n/a	n/a	1
443.971	0.58700251	GIRAFFE	lure	n/a	n/a	n/a	1
444.558	0.729631999	DEGREE	lure	n/a	n/a	n/a	1
445.288	0.616614515	VOCATION	lure	n/a	n/a	n/a	1
445.905	0.433384243	DUCT	lure	n/a	n/a	n/a	1
446.338	0.349938509	MILITARISM	lure	n/a	n/a	n/a	1
446.688	0.39999388	OTTER	lure	n/a	n/a	n/a	1
447.088	0.65006591	HYMNAL	lure	n/a	n/a	n/a	1
447.738	0.566585612	DEITY	lure	n/a	n/a	n/a	1
448.305	0.633324376	CHRONICLE	lure	n/a	n/a	n/a	1
448.938	0.34999525	GHOUL	lure	n/a	n/a	n/a	1
449.288	0.616658217	BOTTLE	short	n/a	n/a	n/a	1
449.905	0.633384916	OBSCURITY	lure	n/a	n/a	n/a	1
450.538	0.533265754	ANTENNAE	lure	n/a	n/a	n/a	1
451.071	0.533326467	TECHNOLOGY	lure	n/a	n/a	n/a	1
451.605	0.666656684	STICKER	lure	n/a	n/a	n/a	1
452.271	0.333384777	SALVATION	lure	n/a	n/a	n/a	1
452.605	0.449995318	VOLTAGE	lure	n/a	n/a	n/a	1
453.055	0.68326717	COMPOSER	lure	n/a	n/a	n/a	1
453.738	0.400051137	MEAT	lure	n/a	n/a	n/a	1
454.138	0.420060602	JACKPOT	lure	n/a	n/a	n/a	1
454.558	0.413262331	LINER	lure	n/a	n/a	n/a	1
454.971	0.68331397	UNCONCERN	lure	n/a	n/a	n/a	1
455.655	0.600000217	WORKHORSE	lure	n/a	n/a	n/a	1
456.255	0.533271301	WHISTLE	lure	n/a	n/a	n/a	1
456.788	0.583318684	PATIENCE	lure	n/a	n/a	n/a	1
457.371	0.666730531	TYPESCRIPT	lure	n/a	n/a	n/a	1
458.038	0.583260275	SPINSTER	lure	n/a	n/a	n/a	1
458.621	0.699986741	VINEGAR	lure	n/a	n/a	n/a	1
459.321	0.39999448	LACROSSE	lure	n/a	n/a	n/a	1
459.721	0.616660096	PARLIAMENT	lure	n/a	n/a	n/a	1
460.338	0.766655667	BROWNIE	lure	n/a	n/a	n/a	1
461.105	0.766655414	BOOKSTALL	lure	n/a	n/a	n/a	1
461.871	0.466659696	MOTTO	lure	n/a	n/a	n/a	1
462.338	0.599993189	LIMITATION	lure	n/a	n/a	n/a	1
462.938	0.50003456	IMPORTANCE	lure	n/a	n/a	n/a	1
463.438	0.61667138	ENVOY	lure	n/a	n/a	n/a	1
464.055	0.366603936	CURIOSITY	lure	n/a	n/a	n/a	1
464.421	n/a	STANCE	lure	n/a	n/a	n/a	1