onset	duration	stim	cond	RT	resp	cresp	acc
4.051	0.666656449	ESTEEM	lure	n/a	n/a	n/a	1
4.717	0.483331285	SPIDER	lure	n/a	n/a	n/a	1
5.201	0.4499873	RESEARCHER	lure	n/a	n/a	n/a	1
5.651	0.449997286	ARCHERY	lure	n/a	n/a	n/a	1
6.101	0.416659995	CONTENTION	lure	n/a	n/a	n/a	1
6.517	0.604764754	BOARDWALK	lure	n/a	n/a	n/a	1
7.122	0.578552074	RESPIRATOR	lure	n/a	n/a	n/a	1
7.701	0.566657719	GELATIN	lure	n/a	n/a	n/a	1
8.267	2.016641947	ENGINE	long	n/a	n/a	n/a	1
10.284	0.483323686	POSTULATE	lure	n/a	n/a	n/a	1
10.767	0.483324859	WOE	lure	n/a	n/a	n/a	1
11.251	0.716660101	GUNPLAY	lure	n/a	n/a	n/a	1
11.967	0.666693594	CURATOR	lure	n/a	n/a	n/a	1
12.634	0.566621637	PENCE	lure	n/a	n/a	n/a	1
13.201	0.749991231	POTHOLE	lure	n/a	n/a	n/a	1
13.951	0.499986487	ARITHMETIC	lure	n/a	n/a	n/a	1
14.451	0.399998658	GNAT	lure	n/a	n/a	n/a	1
14.851	0.583326553	TRADESMAN	lure	n/a	n/a	n/a	1
15.434	0.399990247	SLED	lure	n/a	n/a	n/a	1
15.834	0.549995473	CRIER	lure	n/a	n/a	n/a	1
16.384	2.01663807	CHISEL	long	n/a	n/a	n/a	1
18.401	0.616657866	SUMMATION	lure	n/a	n/a	n/a	1
19.017	0.516657299	WAISTBAND	lure	n/a	n/a	n/a	1
19.534	0.583325676	RAILHEAD	lure	n/a	n/a	n/a	1
20.117	0.66665754	JUDGESHIP	lure	n/a	n/a	n/a	1
20.784	0.616658792	GOATSKIN	lure	n/a	n/a	n/a	1
21.4	0.534929876	WOOD	lure	n/a	n/a	n/a	1
21.935	0.54839234	MOMMA	lure	n/a	n/a	n/a	1
22.484	0.549987521	ATTENDANCE	lure	n/a	n/a	n/a	1
23.034	0.583326769	YOUTH	lure	n/a	n/a	n/a	1
23.617	0.716653133	PENTAGRAM	lure	n/a	n/a	n/a	1
24.334	0.449998735	INADEQUACY	lure	n/a	n/a	n/a	1
24.784	0.616660723	ATLAS	short	n/a	n/a	n/a	1
25.4	0.716648632	TOTALITY	lure	n/a	n/a	n/a	1
26.117	0.566664131	CENTURY	lure	n/a	n/a	n/a	1
26.684	0.566658138	NUB	lure	n/a	n/a	n/a	1
27.25	0.566658515	MOONSHINE	lure	n/a	n/a	n/a	1
27.817	0.683319805	HANDIWORK	lure	n/a	n/a	n/a	1
28.5	0.502057984	DEMANDER	lure	n/a	n/a	n/a	1
29.002	0.781260521	MORROW	lure	n/a	n/a	n/a	1
29.784	0.499992373	METEOROID	lure	n/a	n/a	n/a	1
30.284	0.366667357	STEPCHILD	lure	n/a	n/a	n/a	1
30.65	0.749986575	LETDOWN	lure	n/a	n/a	n/a	1
31.4	0.699985295	BEAGLE	lure	n/a	n/a	n/a	1
32.1	0.516658867	ENTERPRISE	lure	n/a	n/a	n/a	1
32.617	0.699990245	ANKLET	lure	n/a	n/a	n/a	1
33.317	2.016639958	BASIN	long	n/a	n/a	n/a	1
35.334	0.433326019	TRANCE	lure	n/a	n/a	n/a	1
35.767	0.516664437	SAPPHIRE	lure	n/a	n/a	n/a	1
36.284	0.499989716	PANORAMA	lure	n/a	n/a	n/a	1
36.784	0.416658827	LAW	lure	n/a	n/a	n/a	1
37.2	0.483331879	CASTAWAY	lure	n/a	n/a	n/a	1
37.684	0.333323759	SPATIALITY	lure	n/a	n/a	n/a	1
38.017	0.616664004	PORTHOLE	lure	n/a	n/a	n/a	1
38.634	0.333327446	SCRUBBER	lure	n/a	n/a	n/a	1
38.967	0.566658155	SENTINEL	lure	n/a	n/a	n/a	1
39.534	0.554367317	DONOR	lure	n/a	n/a	n/a	1
40.088	0.480563486	LOUDMOUTH	lure	n/a	n/a	n/a	1
40.568	0.44838478	STEIN	lure	n/a	n/a	n/a	1
41.017	0.54998571	MEAL	lure	n/a	n/a	n/a	1
41.567	0.616661642	COMPASS	short	n/a	n/a	n/a	1
42.184	0.499994352	BUNGALOW	lure	n/a	n/a	n/a	1
42.684	0.633318834	CANDY	lure	n/a	n/a	n/a	1
43.317	0.516697135	COBBLER	lure	n/a	n/a	n/a	1
43.834	0.666620564	LOGIC	lure	n/a	n/a	n/a	1
44.5	0.599990319	Un/aEASON	lure	n/a	n/a	n/a	1
45.1	0.566656235	INCUMBENCY	lure	n/a	n/a	n/a	1
45.667	0.516665522	VIAL	lure	n/a	n/a	n/a	1
46.183	0.616658915	LONGBOAT	lure	n/a	n/a	n/a	1
46.8	0.383364001	COOKER	lure	n/a	n/a	n/a	1
47.183	0.550027489	TREATISE	lure	n/a	n/a	n/a	1
47.734	0.549913722	REMARRIAGE	lure	n/a	n/a	n/a	1
48.283	0.583327923	BASKETBALL	lure	n/a	n/a	n/a	1
48.867	0.533326297	INCURSION	lure	n/a	n/a	n/a	1
49.4	0.466659775	SCHOLAR	lure	n/a	n/a	n/a	1
49.867	2.01664545	CABLE	long	n/a	n/a	n/a	1
51.883	0.716650911	SILL	lure	n/a	n/a	n/a	1
52.6	0.333332642	TROTH	lure	n/a	n/a	n/a	1
52.933	0.533321962	FALLOFF	lure	n/a	n/a	n/a	1
53.467	0.633322472	SILHOUETTE	lure	n/a	n/a	n/a	1
54.1	0.533322389	CROISSANT	lure	n/a	n/a	n/a	1
54.633	0.53333263	DISPERSION	lure	n/a	n/a	n/a	1
55.167	0.466654283	SALESCLERK	lure	n/a	n/a	n/a	1
55.633	0.4333275	SHIPWRECK	lure	n/a	n/a	n/a	1
56.067	0.683329002	FLORA	lure	n/a	n/a	n/a	1
56.75	0.716651135	PAD	lure	n/a	n/a	n/a	1
57.467	0.333336456	MOLEHILL	lure	n/a	n/a	n/a	1
57.8	1.019148835	MELON	fruit	821	2	2	1
58.819	0.684568957	WOODCARVER	lure	n/a	n/a	n/a	1
59.504	0.449568391	BACKACHE	lure	n/a	n/a	n/a	1
59.953	0.463379934	AFTERLIFE	lure	n/a	n/a	n/a	1
60.417	0.36666936	GRAVITY	lure	n/a	n/a	n/a	1
60.783	0.56661134	ELEPHANT	lure	n/a	n/a	n/a	1
61.35	0.61670642	SERGE	lure	n/a	n/a	n/a	1
61.967	0.316609393	COUNTRYMAN	lure	n/a	n/a	n/a	1
62.283	0.566658864	ASH	lure	n/a	n/a	n/a	1
62.85	0.566658399	POCKETBOOK	lure	n/a	n/a	n/a	1
63.417	0.733329693	PANTHEON	lure	n/a	n/a	n/a	1
64.15	0.566652032	CHICKWEED	lure	n/a	n/a	n/a	1
64.717	0.616717132	LIBERTY	lure	n/a	n/a	n/a	1
65.333	0.683266883	BREAD	lure	n/a	n/a	n/a	1
66.017	0.733325754	ENVOY	lure	n/a	n/a	n/a	1
66.75	0.616653816	PYRAMID	short	n/a	n/a	n/a	1
67.366	0.466658627	INSOLE	lure	n/a	n/a	n/a	1
67.833	0.566663096	IMMODESTY	lure	n/a	n/a	n/a	1
68.4	0.549988164	SEAFOOD	lure	n/a	n/a	n/a	1
68.95	0.516666113	DARTBOARD	lure	n/a	n/a	n/a	1
69.466	0.433320327	NIGHTLIFE	lure	n/a	n/a	n/a	1
69.9	0.31666424	MATRIMONY	lure	n/a	n/a	n/a	1
70.216	0.503952067	BROOM	lure	n/a	n/a	n/a	1
70.72	0.379368888	PINTO	lure	n/a	n/a	n/a	1
71.1	0.333333541	HEAVEN	lure	n/a	n/a	n/a	1
71.433	0.533325143	CUTBACK	lure	n/a	n/a	n/a	1
71.966	0.666660477	SULPHUR	lure	n/a	n/a	n/a	1
72.633	0.549991694	STIMULI	lure	n/a	n/a	n/a	1
73.183	0.466654636	REACTIVITY	lure	n/a	n/a	n/a	1
73.65	0.483333658	ELEVATOR	lure	n/a	n/a	n/a	1
74.133	0.749988876	CLOVE	lure	n/a	n/a	n/a	1
74.883	0.483317489	HERBIVORE	lure	n/a	n/a	n/a	1
75.366	2.049976569	BOAT	long	n/a	n/a	n/a	1
77.416	0.349990282	OAK	lure	n/a	n/a	n/a	1
77.766	0.750037511	POSTSCRIPT	lure	n/a	n/a	n/a	1
78.516	0.399953674	REVISION	lure	n/a	n/a	n/a	1
78.916	0.316656696	MATRIX	lure	n/a	n/a	n/a	1
79.233	0.549997279	LATECOMER	lure	n/a	n/a	n/a	1
79.783	0.516657123	RULEBOOK	lure	n/a	n/a	n/a	1
80.3	0.416656995	BUCKLER	lure	n/a	n/a	n/a	1
80.716	0.64998943	CONTENDER	lure	n/a	n/a	n/a	1
81.366	0.633326385	EAGLE	lure	n/a	n/a	n/a	1
82	0.550037361	COMPLIMENT	lure	n/a	n/a	n/a	1
82.55	0.616610999	POLYMER	lure	n/a	n/a	n/a	1
83.166	0.349995094	EXCAVATION	lure	n/a	n/a	n/a	1
83.516	1.016853574	PINEAPPLE	fruit	657	2	2	1
84.533	0.616466377	SINGSONG	lure	n/a	n/a	n/a	1
85.15	0.533315966	SOCIALITE	lure	n/a	n/a	n/a	1
85.683	0.566662286	LOUGH	lure	n/a	n/a	n/a	1
86.25	0.733319768	NURSERY	lure	n/a	n/a	n/a	1
86.983	0.7015696	GEOLOGIST	lure	n/a	n/a	n/a	1
87.684	0.615082515	BLOTCH	lure	n/a	n/a	n/a	1
88.3	0.633325403	LID	lure	n/a	n/a	n/a	1
88.933	0.349990021	BORROWER	lure	n/a	n/a	n/a	1
89.283	0.71666382	VARSITY	lure	n/a	n/a	n/a	1
90	0.733318645	TIER	lure	n/a	n/a	n/a	1
90.733	0.433324789	CARDBOARD	lure	n/a	n/a	n/a	1
91.166	0.649997274	NICHE	lure	n/a	n/a	n/a	1
91.816	1.016648461	ORANGE	fruit	565	2	2	1
92.833	0.333384639	RIVERBANK	lure	n/a	n/a	n/a	1
93.166	0.73326531	SALIVATION	lure	n/a	n/a	n/a	1
93.899	0.333373331	KNACK	lure	n/a	n/a	n/a	1
94.233	0.533279616	CHAPEL	lure	n/a	n/a	n/a	1
94.766	0.583330656	CATCHWORD	lure	n/a	n/a	n/a	1
95.349	0.316659717	PACT	lure	n/a	n/a	n/a	1
95.666	0.649988375	NEWSCAST	lure	n/a	n/a	n/a	1
96.316	0.516659441	UNDERLING	lure	n/a	n/a	n/a	1
96.833	0.71666256	CRITTER	lure	n/a	n/a	n/a	1
97.549	0.399991001	MARTINI	lure	n/a	n/a	n/a	1
97.949	0.683326842	FIGMENT	lure	n/a	n/a	n/a	1
98.633	0.56665317	ZUCCHINI	lure	n/a	n/a	n/a	1
99.199	0.516666447	MIDNIGHT	lure	n/a	n/a	n/a	1
99.716	0.783316646	DWELLER	lure	n/a	n/a	n/a	1
100.499	0.616657109	ROPE	short	n/a	n/a	n/a	1
101.116	0.566660972	GRANDSTAND	lure	n/a	n/a	n/a	1
101.683	0.5666599	FLAGSTAFF	lure	n/a	n/a	n/a	1
102.249	0.566716633	QUOTIENT	lure	n/a	n/a	n/a	1
102.816	0.349998895	FLAGSTONE	lure	n/a	n/a	n/a	1
103.166	0.549986836	READERSHIP	lure	n/a	n/a	n/a	1
103.716	0.416601276	VICTORY	lure	n/a	n/a	n/a	1
104.133	0.616657229	PAINTBOX	lure	n/a	n/a	n/a	1
104.749	0.716657539	KINSHIP	lure	n/a	n/a	n/a	1
105.466	0.60000633	INDUCTION	lure	n/a	n/a	n/a	1
106.066	0.483310291	SPINDLE	lure	n/a	n/a	n/a	1
106.549	0.736332922	SUNBURN	lure	n/a	n/a	n/a	1
107.286	0.346992205	JAG	lure	n/a	n/a	n/a	1
107.633	0.566652666	RADIOLOGY	lure	n/a	n/a	n/a	1
108.199	0.533325381	MISPRINT	lure	n/a	n/a	n/a	1
108.733	0.6166579	PANEL	short	n/a	n/a	n/a	1
109.349	0.400039311	STALEMATE	lure	n/a	n/a	n/a	1
109.749	0.499948467	PRETENSE	lure	n/a	n/a	n/a	1
110.249	0.466709459	INITIATIVE	lure	n/a	n/a	n/a	1
110.716	0.599945916	AFTERGLOW	lure	n/a	n/a	n/a	1
111.316	0.383329139	REFUGEE	lure	n/a	n/a	n/a	1
111.699	0.616657146	EMIGRATION	lure	n/a	n/a	n/a	1
112.316	0.766656204	PATIO	lure	n/a	n/a	n/a	1
113.083	0.41665635	PARAGRAPH	lure	n/a	n/a	n/a	1
113.499	0.533386093	DOWNFALL	lure	n/a	n/a	n/a	1
114.033	0.599934614	LAMPPOST	lure	n/a	n/a	n/a	1
114.632	0.587489409	COVERAGE	lure	n/a	n/a	n/a	1
115.22	0.39583082	MIDLAND	lure	n/a	n/a	n/a	1
115.616	0.733323141	BROADSWORD	lure	n/a	n/a	n/a	1
116.349	0.716653362	MONEY	lure	n/a	n/a	n/a	1
117.066	2.016641827	LEAD	long	n/a	n/a	n/a	1
119.082	0.349994909	WINDJAMMER	lure	n/a	n/a	n/a	1
119.432	0.549997802	SPECIALIST	lure	n/a	n/a	n/a	1
119.982	0.699985942	METABOLISM	lure	n/a	n/a	n/a	1
120.682	0.649988583	SHORELINE	lure	n/a	n/a	n/a	1
121.332	0.483329226	SIDECAR	lure	n/a	n/a	n/a	1
121.816	0.383323959	BREADBOARD	lure	n/a	n/a	n/a	1
122.199	0.533323857	PRODUCER	lure	n/a	n/a	n/a	1
122.732	0.499998633	TURNIP	lure	n/a	n/a	n/a	1
123.232	0.59999147	CALYPSO	lure	n/a	n/a	n/a	1
123.832	0.666656533	TORCHLIGHT	lure	n/a	n/a	n/a	1
124.499	0.716658348	JAR	lure	n/a	n/a	n/a	1
125.216	0.433320485	EVIDENCE	lure	n/a	n/a	n/a	1
125.649	0.616663985	CHROME	short	n/a	n/a	n/a	1
126.266	0.383322314	BEDPOST	lure	n/a	n/a	n/a	1
126.649	0.649995007	ABRIDGMENT	lure	n/a	n/a	n/a	1
127.299	0.73331887	REBIRTH	lure	n/a	n/a	n/a	1
128.032	0.385378417	LOYALTY	lure	n/a	n/a	n/a	1
128.418	0.747942161	SUBWAY	lure	n/a	n/a	n/a	1
129.166	0.366661736	CARTON	lure	n/a	n/a	n/a	1
129.532	0.716655236	VISA	lure	n/a	n/a	n/a	1
130.249	0.566656508	TRACTOR	lure	n/a	n/a	n/a	1
130.816	0.716662843	BREADLINE	lure	n/a	n/a	n/a	1
131.532	0.41666005	CORONET	lure	n/a	n/a	n/a	1
131.949	0.399990538	APPETITE	lure	n/a	n/a	n/a	1
132.349	0.599995465	CASTLE	lure	n/a	n/a	n/a	1
132.949	0.483365827	ADVISOR	lure	n/a	n/a	n/a	1
133.432	0.316627754	DRAPER	lure	n/a	n/a	n/a	1
133.749	2.016631138	RIDGE	long	n/a	n/a	n/a	1
135.766	0.53332723	POET	lure	n/a	n/a	n/a	1
136.299	0.749986889	RAYON	lure	n/a	n/a	n/a	1
137.049	0.733326205	FLYER	lure	n/a	n/a	n/a	1
137.782	0.599986492	RECEIVER	lure	n/a	n/a	n/a	1
138.382	0.649992434	BANGLE	lure	n/a	n/a	n/a	1
139.032	0.649995678	RESILIENCE	lure	n/a	n/a	n/a	1
139.682	0.733317166	URCHIN	lure	n/a	n/a	n/a	1
140.415	0.749995079	RATIO	lure	n/a	n/a	n/a	1
141.165	0.466656067	WATERMARK	lure	n/a	n/a	n/a	1
141.632	2.016637664	RATTLE	long	n/a	n/a	n/a	1
143.649	0.616661071	BROWNIE	lure	n/a	n/a	n/a	1
144.265	0.733318637	BARN	lure	n/a	n/a	n/a	1
144.999	0.549997021	CALORIE	lure	n/a	n/a	n/a	1
145.549	0.449990849	SEMICIRCLE	lure	n/a	n/a	n/a	1
145.999	0.416661194	BEE	lure	n/a	n/a	n/a	1
146.415	0.416660144	JOY	lure	n/a	n/a	n/a	1
146.832	0.483329542	NOSTALGIA	lure	n/a	n/a	n/a	1
147.315	0.616654986	TRICOLOR	lure	n/a	n/a	n/a	1
147.932	0.74999272	ANCHORMAN	lure	n/a	n/a	n/a	1
148.682	0.41665625	WAVELENGTH	lure	n/a	n/a	n/a	1
149.099	0.416665162	MODERNISM	lure	n/a	n/a	n/a	1
149.515	0.549991735	MILLENNIUM	lure	n/a	n/a	n/a	1
150.065	1.016652711	MULBERRY	fruit	652	2	2	1
151.082	0.616653499	MALLET	lure	n/a	n/a	n/a	1
151.699	0.449993273	COLOGNE	lure	n/a	n/a	n/a	1
152.149	0.733327172	ASSOn/aCE	lure	n/a	n/a	n/a	1
152.882	0.500032455	VISITATION	lure	n/a	n/a	n/a	1
153.382	0.46661884	SHORTCAKE	lure	n/a	n/a	n/a	1
153.849	0.500106638	DONATION	lure	n/a	n/a	n/a	1
154.349	0.699876375	ENTREATY	lure	n/a	n/a	n/a	1
155.049	0.633329902	AMP	lure	n/a	n/a	n/a	1
155.682	0.683319509	CRIMP	lure	n/a	n/a	n/a	1
156.365	0.399990896	CONCERTO	lure	n/a	n/a	n/a	1
156.765	0.416664732	FIANCE	lure	n/a	n/a	n/a	1
157.182	0.683319866	LOGGER	lure	n/a	n/a	n/a	1
157.865	0.39999627	OUTBURST	lure	n/a	n/a	n/a	1
158.265	0.616655951	JAIL	short	n/a	n/a	n/a	1
158.882	0.399996584	PACIFIST	lure	n/a	n/a	n/a	1
159.282	0.733323006	SKINNER	lure	n/a	n/a	n/a	1
160.015	0.449991815	PRESIDENCY	lure	n/a	n/a	n/a	1
160.465	0.766659361	DOSAGE	lure	n/a	n/a	n/a	1
161.232	0.349991902	LEGION	lure	n/a	n/a	n/a	1
161.582	0.599995445	OPTIMIST	lure	n/a	n/a	n/a	1
162.182	0.433324291	CRAWFISH	lure	n/a	n/a	n/a	1
162.615	0.399994602	RECOVERY	lure	n/a	n/a	n/a	1
163.015	0.716661262	NEEDLEWORK	lure	n/a	n/a	n/a	1
163.732	0.333322492	MERMAID	lure	n/a	n/a	n/a	1
164.065	0.333334413	LIVERWURST	lure	n/a	n/a	n/a	1
164.398	0.616652341	GIVEAWAY	lure	n/a	n/a	n/a	1
165.015	0.73332307	TEATIME	lure	n/a	n/a	n/a	1
165.748	0.366665242	CRAYFISH	lure	n/a	n/a	n/a	1
166.115	0.616655217	BRIDGE	short	n/a	n/a	n/a	1
166.732	0.683326984	DISCLAIMER	lure	n/a	n/a	n/a	1
167.415	0.399991449	DOMINATION	lure	n/a	n/a	n/a	1
167.815	0.366663417	INTELLECT	lure	n/a	n/a	n/a	1
168.182	0.416662714	PARITY	lure	n/a	n/a	n/a	1
168.598	0.399992323	WINGSPAN	lure	n/a	n/a	n/a	1
168.998	0.49999246	VISION	lure	n/a	n/a	n/a	1
169.498	0.733323348	TENDRIL	lure	n/a	n/a	n/a	1
170.232	0.383325214	HIERARCHY	lure	n/a	n/a	n/a	1
170.615	0.58337254	VALOR	lure	n/a	n/a	n/a	1
171.198	0.433281372	COURTESY	lure	n/a	n/a	n/a	1
171.632	0.633327027	BUCKWHEAT	lure	n/a	n/a	n/a	1
172.265	0.366662565	TYCOON	lure	n/a	n/a	n/a	1
172.632	0.716657049	TEENAGER	lure	n/a	n/a	n/a	1
173.348	0.766655827	CENTRIFUGE	lure	n/a	n/a	n/a	1
174.115	0.59998764	BOSOM	lure	n/a	n/a	n/a	1
174.715	2.016638571	SACK	long	n/a	n/a	n/a	1
176.732	0.666711608	MOTIVE	lure	n/a	n/a	n/a	1
177.398	0.483275321	DATA	lure	n/a	n/a	n/a	1
177.882	0.616712234	VESTIBULE	lure	n/a	n/a	n/a	1
178.498	0.333275053	BECK	lure	n/a	n/a	n/a	1
178.832	0.383327142	ZEST	lure	n/a	n/a	n/a	1
179.215	0.733324279	PARSLEY	lure	n/a	n/a	n/a	1
179.948	0.749988552	STOOL	lure	n/a	n/a	n/a	1
180.698	0.333328997	NOVA	lure	n/a	n/a	n/a	1
181.032	0.749987022	INCIVILITY	lure	n/a	n/a	n/a	1
181.782	0.566660645	PROVERB	lure	n/a	n/a	n/a	1
182.348	0.349995819	DUNGEON	lure	n/a	n/a	n/a	1
182.698	1.016649675	MELON	fruit	691	2	2	1
183.715	0.533326125	ADVENTURE	lure	n/a	n/a	n/a	1
184.248	0.733319485	HERNIA	lure	n/a	n/a	n/a	1
184.982	0.366666771	EDITION	lure	n/a	n/a	n/a	1
185.348	0.616652744	NEWSMAN	lure	n/a	n/a	n/a	1
185.965	0.566658526	FOLDER	lure	n/a	n/a	n/a	1
186.531	0.466660179	MULE	lure	n/a	n/a	n/a	1
186.998	0.585636835	IMBECILE	lure	n/a	n/a	n/a	1
187.584	0.547724982	COURIER	lure	n/a	n/a	n/a	1
188.132	0.633339807	NOISE	lure	n/a	n/a	n/a	1
188.765	0.566604706	MECHANISM	lure	n/a	n/a	n/a	1
189.331	0.749990181	OILMAN	lure	n/a	n/a	n/a	1
190.081	0.449990083	WHEELBASE	lure	n/a	n/a	n/a	1
190.531	0.616661688	PATCH	short	n/a	n/a	n/a	1
191.148	0.74998379	STEPSISTER	lure	n/a	n/a	n/a	1
191.898	0.383332939	FILAMENT	lure	n/a	n/a	n/a	1
192.281	0.749985728	WINDOW	lure	n/a	n/a	n/a	1
193.031	0.700053414	WELFARE	lure	n/a	n/a	n/a	1
193.731	0.349933055	ANOREXIA	lure	n/a	n/a	n/a	1
194.081	0.383330721	PAPRIKA	lure	n/a	n/a	n/a	1
194.465	0.649987514	STIRRUP	lure	n/a	n/a	n/a	1
195.115	0.43332904	BREAKUP	lure	n/a	n/a	n/a	1
195.548	0.716658503	THREAT	lure	n/a	n/a	n/a	1
196.265	0.666657238	TELEVISION	lure	n/a	n/a	n/a	1
196.931	0.683320922	MOSQUE	lure	n/a	n/a	n/a	1
197.615	0.766656037	KANGAROO	lure	n/a	n/a	n/a	1
198.381	0.366660546	PULLOVER	lure	n/a	n/a	n/a	1
198.748	1.016652879	LIME	fruit	769	2	2	1
199.765	0.36671281	INSIGHT	lure	n/a	n/a	n/a	1
200.131	0.333274188	PETUNIA	lure	n/a	n/a	n/a	1
200.465	0.516660423	SPEEDWAY	lure	n/a	n/a	n/a	1
200.981	0.533328567	MOTORCYCLE	lure	n/a	n/a	n/a	1
201.515	0.399993813	CUMULATION	lure	n/a	n/a	n/a	1
201.915	0.649995021	SHOWPIECE	lure	n/a	n/a	n/a	1
202.565	0.433321591	PAYMASTER	lure	n/a	n/a	n/a	1
202.998	0.533330485	MEMO	lure	n/a	n/a	n/a	1
203.531	0.349994019	BATTLESHIP	lure	n/a	n/a	n/a	1
203.881	0.316657108	KITE	lure	n/a	n/a	n/a	1
204.198	0.616663846	SYMPHONY	lure	n/a	n/a	n/a	1
204.815	0.666655396	NIGHTLINE	lure	n/a	n/a	n/a	1
205.481	0.749985818	SKYLIGHT	lure	n/a	n/a	n/a	1
206.231	0.683326132	COWARDICE	lure	n/a	n/a	n/a	1
206.915	0.39999737	CRAFTSMEN	lure	n/a	n/a	n/a	1
207.315	2.01663225	PARADE	long	n/a	n/a	n/a	1
209.331	0.516662985	LEAFLET	lure	n/a	n/a	n/a	1
209.848	0.466658219	JAGUAR	lure	n/a	n/a	n/a	1
210.314	0.568355617	FINALITY	lure	n/a	n/a	n/a	1
210.883	0.614965691	CHECKOUT	lure	n/a	n/a	n/a	1
211.498	0.433323152	PONCHO	lure	n/a	n/a	n/a	1
211.931	0.649990741	REPRIEVE	lure	n/a	n/a	n/a	1
212.581	0.733327058	SYMBOLISM	lure	n/a	n/a	n/a	1
213.314	0.516655727	TABLEWARE	lure	n/a	n/a	n/a	1
213.831	0.649993295	PUDDING	lure	n/a	n/a	n/a	1
214.481	0.766655702	GUNBOAT	lure	n/a	n/a	n/a	1
215.248	0.549990589	LONGSHOT	lure	n/a	n/a	n/a	1
215.798	0.616654721	SAND	short	n/a	n/a	n/a	1
216.414	0.366666353	EARPLUG	lure	n/a	n/a	n/a	1
216.781	0.333324801	PENTAGON	lure	n/a	n/a	n/a	1
217.114	0.533368397	RUNT	lure	n/a	n/a	n/a	1
217.648	0.516618947	DAFFODIL	lure	n/a	n/a	n/a	1
218.164	0.533365455	BRUNT	lure	n/a	n/a	n/a	1
218.698	0.399957397	WHACKER	lure	n/a	n/a	n/a	1
219.098	0.483325703	BEDROCK	lure	n/a	n/a	n/a	1
219.581	0.650050464	SUBTLETY	lure	n/a	n/a	n/a	1
220.231	0.483267463	SAVAGERY	lure	n/a	n/a	n/a	1
220.714	0.550029792	SPA	lure	n/a	n/a	n/a	1
221.264	0.733280776	REFINERY	lure	n/a	n/a	n/a	1
221.998	0.666657331	BRIDESMAID	lure	n/a	n/a	n/a	1
222.664	0.766655227	CUTLERY	lure	n/a	n/a	n/a	1
223.431	0.600797909	QUANTITY	lure	n/a	n/a	n/a	1
224.032	0.652569019	DOUBTER	lure	n/a	n/a	n/a	1
224.684	0.363281256	BABOON	lure	n/a	n/a	n/a	1
225.048	0.716658611	REBUTTAL	lure	n/a	n/a	n/a	1
225.764	0.716657475	FEROCITY	lure	n/a	n/a	n/a	1
226.481	0.449986736	CINNAMON	lure	n/a	n/a	n/a	1
226.931	n/a	HUNK	lure	n/a	n/a	n/a	1
238.015	0.632355586	ENTHUSIASM	lure	n/a	n/a	n/a	1
238.647	0.73332335	WATERSHED	lure	n/a	n/a	n/a	1
239.381	0.349993343	FEE	lure	n/a	n/a	n/a	1
239.731	0.483328571	GOLFING	lure	n/a	n/a	n/a	1
240.214	0.499995395	RACEWAY	lure	n/a	n/a	n/a	1
240.714	0.43332698	APPLAUSE	lure	n/a	n/a	n/a	1
241.147	0.499992174	FISSION	lure	n/a	n/a	n/a	1
241.647	0.616659327	COMPASS	short	n/a	n/a	n/a	1
242.264	0.683322035	JAILBREAK	lure	n/a	n/a	n/a	1
242.947	0.566721879	PLOY	lure	n/a	n/a	n/a	1
243.514	0.686359917	ELASTICITY	lure	n/a	n/a	n/a	1
244.2	0.40155832	HABIT	lure	n/a	n/a	n/a	1
244.602	0.512034712	TEETH	lure	n/a	n/a	n/a	1
245.114	0.383291966	DORM	lure	n/a	n/a	n/a	1
245.497	0.416656029	SINCERITY	lure	n/a	n/a	n/a	1
245.914	0.599992788	EVENT	lure	n/a	n/a	n/a	1
246.514	0.766710604	MISFORTUNE	lure	n/a	n/a	n/a	1
247.281	0.41664514	MEMBRANE	lure	n/a	n/a	n/a	1
247.697	0.766619587	ACRONYM	lure	n/a	n/a	n/a	1
248.464	0.350055737	HANDCART	lure	n/a	n/a	n/a	1
248.814	0.516596595	CHARACTER	lure	n/a	n/a	n/a	1
249.331	0.399995216	SCHOOLROOM	lure	n/a	n/a	n/a	1
249.731	1.016649088	BLACKBERRY	fruit	n/a	n/a	2	0
250.747	0.633326406	DISQUIET	lure	154	2	n/a	0
251.381	0.750029773	BRILLIANCE	lure	n/a	n/a	n/a	1
252.131	0.683283281	INSPECTOR	lure	n/a	n/a	n/a	1
252.814	0.383331472	FABRIC	lure	n/a	n/a	n/a	1
253.197	0.749984	LIPID	lure	n/a	n/a	n/a	1
253.947	0.43537372	CHARIOT	lure	n/a	n/a	n/a	1
254.383	0.481283999	FORESTRY	lure	n/a	n/a	n/a	1
254.864	0.399995129	FOOTNOTE	lure	n/a	n/a	n/a	1
255.264	0.716651119	PAWNBROKER	lure	n/a	n/a	n/a	1
255.981	0.416664361	STEEPLE	lure	n/a	n/a	n/a	1
256.397	0.349991524	PARTIALITY	lure	n/a	n/a	n/a	1
256.747	0.633327988	EFFORT	lure	n/a	n/a	n/a	1
257.38	0.699991042	ELOQUENCE	lure	n/a	n/a	n/a	1
258.08	2.016637393	BOAT	long	n/a	n/a	n/a	1
260.097	0.499989628	COASTGUARD	lure	n/a	n/a	n/a	1
260.597	0.649996554	TANG	lure	n/a	n/a	n/a	1
261.247	0.616705675	FOOTHILL	lure	n/a	n/a	n/a	1
261.864	0.583275659	OXIDE	lure	n/a	n/a	n/a	1
262.447	0.349991149	DRUMSTICK	lure	n/a	n/a	n/a	1
262.797	0.516659276	CONFUSION	lure	n/a	n/a	n/a	1
263.314	0.533329668	ERRAND	lure	n/a	n/a	n/a	1
263.847	0.666657998	STAIRWELL	lure	n/a	n/a	n/a	1
264.514	0.649990373	APPARITION	lure	n/a	n/a	n/a	1
265.164	0.666652504	OUTFIELD	lure	n/a	n/a	n/a	1
265.83	0.499993693	HEADLAND	lure	n/a	n/a	n/a	1
266.33	1.016652893	BAn/aA	fruit	611	2	2	1
267.347	0.649989979	MADWOMAN	lure	n/a	n/a	n/a	1
267.997	0.383334405	LINEMEN	lure	n/a	n/a	n/a	1
268.38	0.483323616	GROUNDER	lure	n/a	n/a	n/a	1
268.864	0.349992043	STORY	lure	n/a	n/a	n/a	1
269.214	0.633324669	PRECEDENCE	lure	n/a	n/a	n/a	1
269.847	0.487078561	SHEATH	lure	n/a	n/a	n/a	1
270.334	0.715567773	PASTRAMI	lure	n/a	n/a	n/a	1
271.05	0.563999371	BUCKSKIN	lure	n/a	n/a	n/a	1
271.614	0.416661393	POORHOUSE	lure	n/a	n/a	n/a	1
272.03	0.333324287	GIRL	lure	n/a	n/a	n/a	1
272.364	0.499995379	GAINER	lure	n/a	n/a	n/a	1
272.864	0.583324286	SIESTA	lure	n/a	n/a	n/a	1
273.447	0.516661248	WATCHMAN	lure	n/a	n/a	n/a	1
273.964	0.449992899	TRANSFER	lure	n/a	n/a	n/a	1
274.414	0.616658548	SAND	short	n/a	n/a	n/a	1
275.03	0.383330928	LAMPSHADE	lure	n/a	n/a	n/a	1
275.414	0.316656397	EXCEPTION	lure	n/a	n/a	n/a	1
275.73	0.733327241	BUOYANCY	lure	n/a	n/a	n/a	1
276.464	0.383322736	ASSASSIN	lure	n/a	n/a	n/a	1
276.847	0.599993192	PREDICATE	lure	n/a	n/a	n/a	1
277.447	0.599993608	BLOWOUT	lure	n/a	n/a	n/a	1
278.047	0.383326584	HOMEGROWN	lure	n/a	n/a	n/a	1
278.43	0.516658614	WATCHBAND	lure	n/a	n/a	n/a	1
278.947	0.649993356	CUBICLE	lure	n/a	n/a	n/a	1
279.597	0.416661823	SPINE	lure	n/a	n/a	n/a	1
280.014	0.349992329	GRUB	lure	n/a	n/a	n/a	1
280.364	0.536704202	CHORD	lure	n/a	n/a	n/a	1
280.9	0.513283179	SUNDAE	lure	n/a	n/a	n/a	1
281.413	0.683319828	CABINET	lure	n/a	n/a	n/a	1
282.097	0.699994978	MYSTERY	lure	n/a	n/a	n/a	1
282.797	2.051160658	BASIN	long	n/a	n/a	n/a	1
284.848	0.348803443	CHARMER	lure	n/a	n/a	n/a	1
285.197	0.533327243	FLOTATION	lure	n/a	n/a	n/a	1
285.73	0.41665775	EVERYONE	lure	n/a	n/a	n/a	1
286.147	0.749994374	GEn/aE	lure	n/a	n/a	n/a	1
286.897	0.516655491	FOWLER	lure	n/a	n/a	n/a	1
287.413	0.466658576	DECATHLON	lure	n/a	n/a	n/a	1
287.88	0.633326697	PATRONAGE	lure	n/a	n/a	n/a	1
288.513	0.416660342	LIGHTFOOT	lure	n/a	n/a	n/a	1
288.93	0.649988553	DASHBOARD	lure	n/a	n/a	n/a	1
289.58	0.749992652	WHALEBONE	lure	n/a	n/a	n/a	1
290.33	0.316659432	RAGTIME	lure	n/a	n/a	n/a	1
290.647	2.016642929	PARADE	long	n/a	n/a	n/a	1
292.663	0.3666623	GOBLET	lure	n/a	n/a	n/a	1
293.03	0.4166572	OVERHANG	lure	n/a	n/a	n/a	1
293.447	0.349993328	LOOTER	lure	n/a	n/a	n/a	1
293.797	0.333331411	ENCLOSURE	lure	n/a	n/a	n/a	1
294.13	0.71665563	ALTERATION	lure	n/a	n/a	n/a	1
294.847	0.316703817	ADVISEMENT	lure	n/a	n/a	n/a	1
295.163	0.483283285	SUBTITLE	lure	n/a	n/a	n/a	1
295.647	0.416664052	ILLUSION	lure	n/a	n/a	n/a	1
296.063	0.58332833	COMMUNION	lure	n/a	n/a	n/a	1
296.647	0.650052502	THEORIST	lure	n/a	n/a	n/a	1
297.297	0.333260074	DECREMENT	lure	n/a	n/a	n/a	1
297.63	0.333334563	HOUR	lure	n/a	n/a	n/a	1
297.963	0.499993003	TENACITY	lure	n/a	n/a	n/a	1
298.463	0.566654539	BOUNTY	lure	n/a	n/a	n/a	1
299.03	0.616661059	ROPE	short	n/a	n/a	n/a	1
299.647	0.566654123	DUEL	lure	n/a	n/a	n/a	1
300.213	0.700043486	REVIVALISM	lure	n/a	n/a	n/a	1
300.913	0.549942553	HEADHUNTER	lure	n/a	n/a	n/a	1
301.463	0.583367559	MONARCH	lure	n/a	n/a	n/a	1
302.047	0.449949836	SEPARATISM	lure	n/a	n/a	n/a	1
302.497	0.383327516	PETTICOAT	lure	n/a	n/a	n/a	1
302.88	0.716654915	TOXICITY	lure	n/a	n/a	n/a	1
303.597	0.449993096	DUNCE	lure	n/a	n/a	n/a	1
304.047	0.483326966	PHYSIQUE	lure	n/a	n/a	n/a	1
304.53	0.599992158	RARITY	lure	n/a	n/a	n/a	1
305.13	0.399997223	ALBINO	lure	n/a	n/a	n/a	1
305.53	0.399990617	PAIL	lure	n/a	n/a	n/a	1
305.93	0.599995866	NEWCOMER	lure	n/a	n/a	n/a	1
306.53	0.583325478	POCKETFUL	lure	n/a	n/a	n/a	1
307.113	0.683319494	ENGAGEMENT	lure	n/a	n/a	n/a	1
307.796	0.616664402	PYRAMID	short	n/a	n/a	n/a	1
308.413	0.399988195	SLINGSHOT	lure	n/a	n/a	n/a	1
308.813	0.399995522	REAPER	lure	n/a	n/a	n/a	1
309.213	0.399992816	HOCKEY	lure	n/a	n/a	n/a	1
309.613	0.599997724	HIGHSCHOOL	lure	n/a	n/a	n/a	1
310.213	0.449987761	INDICTMENT	lure	n/a	n/a	n/a	1
310.663	0.533329678	ALIENATION	lure	n/a	n/a	n/a	1
311.196	0.787315615	REMOVER	lure	n/a	n/a	n/a	1
311.984	0.595994485	PIPELINE	lure	n/a	n/a	n/a	1
312.58	0.716656326	DIESEL	lure	n/a	n/a	n/a	1
313.296	0.633365081	SYMBOL	lure	n/a	n/a	n/a	1
313.93	0.516675202	EMERGENCY	lure	n/a	n/a	n/a	1
314.446	0.649941396	IMPAIRMENT	lure	n/a	n/a	n/a	1
315.096	0.349992401	YEARBOOK	lure	n/a	n/a	n/a	1
315.446	0.333330566	MOVEMENT	lure	n/a	n/a	n/a	1
315.78	0.599989638	NOTION	lure	n/a	n/a	n/a	1
316.38	2.016636505	CHISEL	long	n/a	n/a	n/a	1
318.396	0.650054141	SMOKEHOUSE	lure	n/a	n/a	n/a	1
319.046	0.483265739	AIRPORT	lure	n/a	n/a	n/a	1
319.53	0.616709067	STARFISH	lure	n/a	n/a	n/a	1
320.146	0.533270208	FOREBEAR	lure	n/a	n/a	n/a	1
320.68	0.533386337	SALAMANDER	lure	n/a	n/a	n/a	1
321.213	0.616598095	PACKAGE	lure	n/a	n/a	n/a	1
321.83	0.58332509	CHINCHILLA	lure	n/a	n/a	n/a	1
322.413	0.499996425	WRESTLER	lure	n/a	n/a	n/a	1
322.913	0.566655268	KAZOO	lure	n/a	n/a	n/a	1
323.48	0.416660768	ECLAIR	lure	n/a	n/a	n/a	1
323.896	0.499996978	GREENERY	lure	n/a	n/a	n/a	1
324.396	2.016640583	ENGINE	long	n/a	n/a	n/a	1
326.413	0.499992641	GRAD	lure	n/a	n/a	n/a	1
326.913	0.44998914	WORKPIECE	lure	n/a	n/a	n/a	1
327.363	0.666661401	LITER	lure	n/a	n/a	n/a	1
328.03	0.316723877	FUSION	lure	n/a	n/a	n/a	1
328.346	0.36659833	PILLION	lure	n/a	n/a	n/a	1
328.713	0.466656255	SOLIDARITY	lure	n/a	n/a	n/a	1
329.179	0.633368294	NOVICE	lure	n/a	n/a	n/a	1
329.813	0.516620157	COUNTY	lure	n/a	n/a	n/a	1
330.329	0.783377827	PLANELOAD	lure	n/a	n/a	n/a	1
331.113	0.616643239	GODSEND	lure	n/a	n/a	n/a	1
331.729	0.616615154	MOUSTACHE	lure	n/a	n/a	n/a	1
332.346	0.685399699	QUIRK	lure	n/a	n/a	n/a	1
333.032	0.614583808	JAIL	short	n/a	n/a	n/a	1
333.646	0.6999913	DOER	lure	n/a	n/a	n/a	1
334.346	0.499989121	ROSEWATER	lure	n/a	n/a	n/a	1
334.846	0.733321608	PAPERWORK	lure	n/a	n/a	n/a	1
335.579	0.533370313	REALISM	lure	n/a	n/a	n/a	1
336.113	0.666658218	HANDSHAKE	lure	n/a	n/a	n/a	1
336.779	0.600008543	ERASER	lure	n/a	n/a	n/a	1
337.379	0.499930073	ENMITY	lure	n/a	n/a	n/a	1
337.879	0.599995727	FINALE	lure	n/a	n/a	n/a	1
338.479	0.599993177	THICKENER	lure	n/a	n/a	n/a	1
339.079	0.719394776	ROTISSERIE	lure	n/a	n/a	n/a	1
339.799	0.56394575	CHIVE	lure	n/a	n/a	n/a	1
340.363	0.416671444	BIZ	lure	n/a	n/a	n/a	1
340.779	0.616616149	BRIDGE	short	n/a	n/a	n/a	1
341.396	0.683324119	EDDY	lure	n/a	n/a	n/a	1
342.079	0.466702717	CHOPSTICK	lure	n/a	n/a	n/a	1
342.546	0.416621586	SUITOR	lure	n/a	n/a	n/a	1
342.963	0.466660312	ORACLE	lure	n/a	n/a	n/a	1
343.429	0.733325676	TORT	lure	n/a	n/a	n/a	1
344.163	0.549989722	BLUEBIRD	lure	n/a	n/a	n/a	1
344.713	0.349990568	JEWELER	lure	n/a	n/a	n/a	1
345.063	0.566663629	STAIRWAY	lure	n/a	n/a	n/a	1
345.629	0.616659946	MATCHMAKER	lure	n/a	n/a	n/a	1
346.246	0.499986839	LAWMEN	lure	n/a	n/a	n/a	1
346.746	0.366663284	STRENGTH	lure	n/a	n/a	n/a	1
347.113	0.449996802	HULA	lure	n/a	n/a	n/a	1
347.563	0.783321251	FOXHOLE	lure	n/a	n/a	n/a	1
348.346	0.349994373	HOOD	lure	n/a	n/a	n/a	1
348.696	0.733324682	DANCER	lure	n/a	n/a	n/a	1
349.429	0.616657743	PATCH	short	n/a	n/a	n/a	1
350.046	0.316657827	SHELLFISH	lure	n/a	n/a	n/a	1
350.363	0.749989579	QUIZMASTER	lure	n/a	n/a	n/a	1
351.113	0.533329285	INIQUITY	lure	n/a	n/a	n/a	1
351.646	0.366663613	CONNECTION	lure	n/a	n/a	n/a	1
352.012	0.333328121	TURNER	lure	n/a	n/a	n/a	1
352.346	0.466659871	SPATULA	lure	n/a	n/a	n/a	1
352.812	0.500050613	MINORITY	lure	n/a	n/a	n/a	1
353.313	0.316698301	SECRETION	lure	n/a	n/a	n/a	1
353.629	0.433228124	FARMER	lure	n/a	n/a	n/a	1
354.062	0.483327141	MEN	lure	n/a	n/a	n/a	1
354.546	0.316663787	BEEFSTEAK	lure	n/a	n/a	n/a	1
354.862	0.51665735	BRUISER	lure	n/a	n/a	n/a	1
355.379	0.416663483	OPPOSITION	lure	n/a	n/a	n/a	1
355.796	0.499992215	MANDARIN	lure	n/a	n/a	n/a	1
356.296	0.733326756	BREWERY	lure	141	2	n/a	0
357.029	0.349989718	EXTENT	lure	n/a	n/a	n/a	1
357.379	2.049975816	CABLE	long	n/a	n/a	n/a	1
359.429	0.617854611	AEROSPACE	lure	n/a	n/a	n/a	1
360.047	0.653570148	JUBILATION	lure	n/a	n/a	n/a	1
360.7	0.661883152	SLOWPOKE	lure	n/a	n/a	n/a	1
361.362	0.599985631	GLUCOSE	lure	n/a	n/a	n/a	1
361.962	0.699992677	HERTZ	lure	n/a	n/a	n/a	1
362.662	0.516660336	JAY	lure	n/a	n/a	n/a	1
363.179	0.683323708	GUNMAN	lure	n/a	n/a	n/a	1
363.862	0.316658487	CONJUNCT	lure	n/a	n/a	n/a	1
364.179	0.399999562	POLICY	lure	n/a	n/a	n/a	1
364.579	0.7167184	CELLULOSE	lure	n/a	n/a	n/a	1
365.296	0.333266394	ROAD	lure	n/a	n/a	n/a	1
365.629	2.016637528	LEAD	long	n/a	n/a	n/a	1
367.646	0.466713115	STARGAZER	lure	n/a	n/a	n/a	1
368.112	0.466661017	TOOL	lure	n/a	n/a	n/a	1
368.579	0.716600613	CROSSWALK	lure	n/a	n/a	n/a	1
369.296	0.366659951	SEVERANCE	lure	n/a	n/a	n/a	1
369.662	0.766666291	TRUFFLE	lure	n/a	n/a	n/a	1
370.429	0.401157528	TOUPEE	lure	n/a	n/a	n/a	1
370.83	0.683568583	DOORNAIL	lure	n/a	n/a	n/a	1
371.514	0.465247792	ASYMMETRY	lure	n/a	n/a	n/a	1
371.979	0.349990868	EXPERIMENT	lure	n/a	n/a	n/a	1
372.329	0.699993777	SENIORITY	lure	n/a	n/a	n/a	1
373.029	0.650053128	RAMPART	lure	n/a	n/a	n/a	1
373.679	0.399932593	MATH	lure	n/a	n/a	n/a	1
374.079	2.01663433	RIDGE	long	n/a	n/a	n/a	1
376.095	0.383380647	ADULTHOOD	lure	n/a	n/a	n/a	1
376.479	0.733273435	FRIAR	lure	n/a	n/a	n/a	1
377.212	0.53337509	BIDDER	lure	n/a	n/a	n/a	1
377.746	0.633273759	JOYSTICK	lure	n/a	n/a	n/a	1
378.379	0.583328904	SIDESHOW	lure	n/a	n/a	n/a	1
378.962	0.533364604	BLACKBOARD	lure	n/a	n/a	n/a	1
379.495	0.516679101	FOOLERY	lure	n/a	n/a	n/a	1
380.012	0.566594721	SAXOPHONE	lure	n/a	n/a	n/a	1
380.579	0.666695656	GEOMETRY	lure	n/a	n/a	n/a	1
381.245	0.399959429	SOLDIERY	lure	n/a	n/a	n/a	1
381.645	0.499988021	HITCHHIKER	lure	n/a	n/a	n/a	1
382.145	0.516659265	STICKLER	lure	n/a	n/a	n/a	1
382.662	2.016641065	RATTLE	long	n/a	n/a	n/a	1
384.679	0.433332881	OUTLOOK	lure	n/a	n/a	n/a	1
385.112	0.616741467	CADENCE	lure	n/a	n/a	n/a	1
385.729	0.599903987	GUNMEN	lure	n/a	n/a	n/a	1
386.329	0.733360905	INSET	lure	n/a	n/a	n/a	1
387.062	0.483288576	CAUSEWAY	lure	n/a	n/a	n/a	1
387.545	0.516655265	EXCURSION	lure	n/a	n/a	n/a	1
388.062	0.383327716	FREEDMEN	lure	n/a	n/a	n/a	1
388.445	0.516662515	DOORSTEP	lure	n/a	n/a	n/a	1
388.962	0.699992241	VIABILITY	lure	n/a	n/a	n/a	1
389.662	0.749984144	KITCHEN	lure	n/a	n/a	n/a	1
390.412	0.633324606	SULFUR	lure	n/a	n/a	n/a	1
391.045	1.049989528	GRAPE	fruit	584	2	2	1
392.095	0.649988053	UMBRELLA	lure	n/a	n/a	n/a	1
392.745	0.549995554	SPEAKER	lure	n/a	n/a	n/a	1
393.295	0.349992704	VIOLATION	lure	n/a	n/a	n/a	1
393.645	0.33332664	PERSONAGE	lure	n/a	n/a	n/a	1
393.979	0.416660805	BARKEEP	lure	n/a	n/a	n/a	1
394.395	0.583328243	OMELETTE	lure	n/a	n/a	n/a	1
394.979	0.416662861	CLIFF	lure	n/a	n/a	n/a	1
395.395	0.699988789	REFERENT	lure	n/a	n/a	n/a	1
396.095	0.633326404	FATHEAD	lure	n/a	n/a	n/a	1
396.729	0.450056708	WIZARD	lure	n/a	n/a	n/a	1
397.179	0.616591577	NINTENDO	lure	n/a	n/a	n/a	1
397.795	0.733362267	PINKIE	lure	n/a	n/a	n/a	1
398.529	0.59994967	FORESTER	lure	n/a	n/a	n/a	1
399.128	0.383327685	SCANDAL	lure	n/a	n/a	n/a	1
399.512	0.616658507	ATLAS	short	n/a	n/a	n/a	1
400.128	0.38333347	COWHAND	lure	n/a	n/a	n/a	1
400.512	0.400030963	IGNITION	lure	n/a	n/a	n/a	1
400.912	0.683283404	OPENER	lure	n/a	n/a	n/a	1
401.595	0.683323775	CARPENTRY	lure	n/a	n/a	n/a	1
402.278	0.450054816	LICENSEE	lure	n/a	n/a	n/a	1
402.729	0.699931538	BANISHMENT	lure	n/a	n/a	n/a	1
403.428	0.383323589	ELECTION	lure	n/a	n/a	n/a	1
403.812	0.616662321	DOGCATCHER	lure	n/a	n/a	n/a	1
404.428	0.599986955	DUNE	lure	n/a	n/a	n/a	1
405.028	0.533325713	IRRIGATION	lure	n/a	n/a	n/a	1
405.562	0.56665806	PERIOD	lure	n/a	n/a	n/a	1
406.128	0.583328724	PAMPHLET	lure	n/a	n/a	n/a	1
406.712	0.616655069	CURRICULUM	lure	n/a	n/a	n/a	1
407.328	0.550036824	EXHAUSTION	lure	n/a	n/a	n/a	1
407.878	0.650000442	PANEL	short	n/a	n/a	n/a	1
408.528	0.749938876	ANNUITY	lure	n/a	n/a	n/a	1
409.278	0.350743698	CATHEDRAL	lure	n/a	n/a	n/a	1
409.629	0.415972507	TOMB	lure	n/a	n/a	n/a	1
410.045	0.699928968	LONGBOW	lure	n/a	n/a	n/a	1
410.745	0.36666268	CRICKET	lure	n/a	n/a	n/a	1
411.112	0.716654633	YELLER	lure	n/a	n/a	n/a	1
411.828	0.499997386	POSTMASTER	lure	n/a	n/a	n/a	1
412.328	0.383327901	MUSK	lure	n/a	n/a	n/a	1
412.712	0.499993202	VIRILITY	lure	n/a	n/a	n/a	1
413.212	0.449992283	FIELDSMAN	lure	n/a	n/a	n/a	1
413.662	0.39999242	STOPOVER	lure	n/a	n/a	n/a	1
414.062	0.533389218	DEFECTION	lure	n/a	n/a	n/a	1
414.595	0.499956654	PRESERVER	lure	n/a	n/a	n/a	1
415.095	0.583298408	REVENUE	lure	n/a	n/a	n/a	1
415.678	0.483330304	DOORMAN	lure	n/a	n/a	n/a	1
416.162	1.016647928	BERRY	fruit	604	2	2	1
417.178	0.433329267	STRIKER	lure	n/a	n/a	n/a	1
417.612	0.549991424	HORSEPOWER	lure	n/a	n/a	n/a	1
418.162	0.549993459	PULLEY	lure	n/a	n/a	n/a	1
418.712	0.78332206	BLASPHEMY	lure	n/a	n/a	n/a	1
419.495	0.433328569	POLLUTION	lure	n/a	n/a	n/a	1
419.928	0.583324989	AGENT	lure	n/a	n/a	n/a	1
420.512	0.566658223	REDCOAT	lure	n/a	n/a	n/a	1
421.078	0.633320715	TREATY	lure	n/a	n/a	n/a	1
421.712	0.766656502	HINDRANCE	lure	n/a	n/a	n/a	1
422.478	0.716656467	ABILITY	lure	n/a	n/a	n/a	1
423.195	0.533327847	PUSHCART	lure	n/a	n/a	n/a	1
423.728	0.600033821	SLIPPAGE	lure	n/a	n/a	n/a	1
424.328	0.733278917	BRONZE	lure	n/a	n/a	n/a	1
425.061	1.050036524	PINEAPPLE	fruit	616	2	2	1
426.112	0.470206494	VOTER	lure	n/a	n/a	n/a	1
426.582	0.396400925	LULLABY	lure	n/a	n/a	n/a	1
426.978	0.549988217	SUCCESSOR	lure	n/a	n/a	n/a	1
427.528	0.433331064	HASTE	lure	n/a	n/a	n/a	1
427.961	0.549988314	COBWEB	lure	n/a	n/a	n/a	1
428.511	0.633327098	MARGIN	lure	n/a	n/a	n/a	1
429.145	0.733319974	CONCEPTION	lure	n/a	n/a	n/a	1
429.878	0.633327599	SUNSET	lure	n/a	n/a	n/a	1
430.511	0.533320989	CHECKPOINT	lure	n/a	n/a	n/a	1
431.045	0.599996073	RUBBLE	lure	n/a	n/a	n/a	1
431.645	0.366660167	RESERVOIR	lure	n/a	n/a	n/a	1
432.011	0.433324077	MAILMAN	lure	n/a	n/a	n/a	1
432.445	0.516662483	LENGTH	lure	n/a	n/a	n/a	1
432.961	1.016651896	GOOSEBERRY	fruit	604	2	2	1
433.978	0.749991548	CALFSKIN	lure	n/a	n/a	n/a	1
434.728	0.666707295	CRITIC	lure	n/a	n/a	n/a	1
435.395	0.549995123	ACCEPTANCE	lure	n/a	n/a	n/a	1
435.945	0.533271876	MEAD	lure	n/a	n/a	n/a	1
436.478	0.433330484	TEACUP	lure	n/a	n/a	n/a	1
436.911	0.699988718	FIELDER	lure	n/a	n/a	n/a	1
437.611	0.616720914	BOPPER	lure	n/a	n/a	n/a	1
438.228	0.316597446	CARNAGE	lure	n/a	n/a	n/a	1
438.545	0.766658344	CONCESSION	lure	n/a	n/a	n/a	1
439.311	0.667915915	ROSEWOOD	lure	n/a	n/a	n/a	1
439.979	0.382075658	METHANE	lure	n/a	n/a	n/a	1
440.361	0.566648695	UNIT	lure	n/a	n/a	n/a	1
440.928	0.749991099	YOGURT	lure	n/a	n/a	n/a	1
441.678	0.616659453	CHROME	short	n/a	n/a	n/a	1
442.295	0.599992683	STRIPE	lure	n/a	n/a	n/a	1
442.895	0.78332017	MEMORIAL	lure	n/a	n/a	n/a	1
443.678	0.751787575	BASKETWORK	lure	n/a	n/a	n/a	1
444.43	0.764855037	INCIDENT	lure	n/a	n/a	n/a	1
445.195	0.51666689	NAVIGATION	lure	n/a	n/a	n/a	1
445.711	0.51665125	EGGBEATER	lure	n/a	n/a	n/a	1
446.228	0.48332838	ESCAPEE	lure	n/a	n/a	n/a	1
446.711	0.499990927	TUMMY	lure	n/a	n/a	n/a	1
447.211	0.733328489	PASSBOOK	lure	n/a	n/a	n/a	1
447.944	0.650091174	SHOWGIRL	lure	n/a	n/a	n/a	1
448.595	0.683222321	SNAIL	lure	n/a	n/a	n/a	1
449.278	0.616707197	EYEPIECE	lure	n/a	n/a	n/a	1
449.895	2.016590892	SACK	long	n/a	n/a	n/a	1
451.911	0.349990294	SUSPICION	lure	n/a	n/a	n/a	1
452.261	0.59998998	AGILITY	lure	n/a	n/a	n/a	1
452.861	0.533332392	DENTURE	lure	n/a	n/a	n/a	1
453.394	0.416695151	BRAIN	lure	n/a	n/a	n/a	1
453.811	0.366626352	FORMATION	lure	n/a	n/a	n/a	1
454.178	0.633321606	WORDPLAY	lure	n/a	n/a	n/a	1
454.811	0.466662314	FEAT	lure	n/a	n/a	n/a	1
455.278	0.516656775	CANDOR	lure	n/a	n/a	n/a	1
455.794	0.516662037	CHEMISE	lure	n/a	n/a	n/a	1
456.311	0.499988649	ALTAR	lure	n/a	n/a	n/a	1
456.811	0.56666084	REVERENCE	lure	n/a	n/a	n/a	1
457.378	0.333330128	HANDICRAFT	lure	n/a	n/a	n/a	1
457.711	0.568133738	HEALER	lure	n/a	n/a	n/a	1
458.279	0.331853009	FUR	lure	n/a	n/a	n/a	1
458.611	0.633327096	POTPOURRI	lure	n/a	n/a	n/a	1
459.244	0.749986753	HOSTAGE	lure	n/a	n/a	n/a	1
459.994	0.366661594	PLEASANTRY	lure	n/a	n/a	n/a	1
460.361	0.733321265	NOMAD	lure	n/a	n/a	n/a	1
461.094	0.616659497	ALPHABET	lure	n/a	n/a	n/a	1
461.711	0.483323715	MACHINERY	lure	n/a	n/a	n/a	1
462.194	0.533328645	FOLLY	lure	n/a	n/a	n/a	1
462.728	0.566658095	GROWTH	lure	n/a	n/a	n/a	1
463.294	0.633328806	SALINE	lure	n/a	n/a	n/a	1
463.928	0.69998812	RELAPSE	lure	n/a	n/a	n/a	1
464.628	n/a	QUICKSTEP	lure	n/a	n/a	n/a	1