onset	duration	stim	cond	RT	resp	cresp	acc
4.052	0.530029361	MOTTO	lure	n/a	n/a	n/a	1
4.582	0.683361694	EPIPHANY	lure	n/a	n/a	n/a	1
5.265	0.616618911	CRUMB	lure	n/a	n/a	n/a	1
5.882	0.549992815	QUICKSAND	lure	n/a	n/a	n/a	1
6.432	0.519482016	EVACUATION	lure	n/a	n/a	n/a	1
6.951	0.647166699	SPORTSMEN	lure	n/a	n/a	n/a	1
7.599	0.6666608	DREAMBOAT	lure	n/a	n/a	n/a	1
8.265	1.016648967	APPLE	fruit	589	2	2	1
9.282	0.616660109	SYRUP	lure	n/a	n/a	n/a	1
9.899	0.633324371	COMMA	lure	n/a	n/a	n/a	1
10.532	0.633322981	ORGANISM	lure	n/a	n/a	n/a	1
11.165	0.333328651	LYRE	lure	n/a	n/a	n/a	1
11.499	0.666659792	JERSEY	lure	n/a	n/a	n/a	1
12.165	0.54999172	CEREMONY	lure	n/a	n/a	n/a	1
12.715	0.649989451	NUNNERY	lure	n/a	n/a	n/a	1
13.365	0.566657009	SHOWMAN	lure	n/a	n/a	n/a	1
13.932	0.733327686	DEMOLITION	lure	n/a	n/a	n/a	1
14.665	0.533325377	MOMMY	lure	n/a	n/a	n/a	1
15.199	0.699988001	GULLET	lure	n/a	n/a	n/a	1
15.899	0.583405912	CONDOLENCE	lure	n/a	n/a	n/a	1
16.482	2.016559919	BASIN	long	n/a	n/a	n/a	1
18.498	0.583318478	PSYCHOLOGY	lure	n/a	n/a	n/a	1
19.082	0.616663199	EYESIGHT	lure	n/a	n/a	n/a	1
19.698	0.516658929	COUPE	lure	n/a	n/a	n/a	1
20.215	0.683325801	STOKER	lure	n/a	n/a	n/a	1
20.898	0.399993329	CANDIDATE	lure	n/a	n/a	n/a	1
21.298	0.71665133	ARCADE	lure	n/a	n/a	n/a	1
22.015	0.416665602	ACCESSORY	lure	n/a	n/a	n/a	1
22.432	0.316663938	CUBISM	lure	n/a	n/a	n/a	1
22.748	0.666654724	TEMPTER	lure	n/a	n/a	n/a	1
23.415	0.599988023	EQUINOX	lure	n/a	n/a	n/a	1
24.015	0.333331609	BELL	lure	n/a	n/a	n/a	1
24.348	0.616657774	FIDDLER	lure	n/a	n/a	n/a	1
24.965	1.01665498	GRAPEFRUIT	fruit	570	2	2	1
25.982	0.499987803	JACKRABBIT	lure	n/a	n/a	n/a	1
26.482	0.400000119	TREND	lure	n/a	n/a	n/a	1
26.882	0.751721933	LEXICON	lure	n/a	n/a	n/a	1
27.633	0.350596577	SERPENT	lure	n/a	n/a	n/a	1
27.984	0.58353057	MARBLE	lure	n/a	n/a	n/a	1
28.568	0.768415256	SATIRE	lure	n/a	n/a	n/a	1
29.336	0.379029239	GYPSY	lure	n/a	n/a	n/a	1
29.715	0.366712345	HOOKY	lure	n/a	n/a	n/a	1
30.082	0.633269758	UPTURN	lure	n/a	n/a	n/a	1
30.715	0.716657104	SCUT	lure	n/a	n/a	n/a	1
31.432	0.483330046	EXTENSION	lure	n/a	n/a	n/a	1
31.915	0.683321178	STYLIST	lure	n/a	n/a	n/a	1
32.598	0.61666164	CRAB	lure	n/a	n/a	n/a	1
33.215	0.616655014	PATCH	short	n/a	n/a	n/a	1
33.832	0.366660954	DAUGHTER	lure	n/a	n/a	n/a	1
34.198	0.466660588	SORCERY	lure	n/a	n/a	n/a	1
34.665	0.466660188	BACKBONE	lure	n/a	n/a	n/a	1
35.132	0.666660283	COMMITTEE	lure	n/a	n/a	n/a	1
35.798	0.533321455	RAG	lure	n/a	n/a	n/a	1
36.332	0.516659354	DUSK	lure	n/a	n/a	n/a	1
36.848	0.333330212	HIDEOUT	lure	n/a	n/a	n/a	1
37.182	0.716653571	HURRICANE	lure	n/a	n/a	n/a	1
37.898	0.316663831	FRIENDSHIP	lure	n/a	n/a	n/a	1
38.215	0.74999081	PLAYGROUP	lure	n/a	n/a	n/a	1
38.965	0.566661023	LETTUCE	lure	n/a	n/a	n/a	1
39.532	0.683320073	TIC	lure	n/a	n/a	n/a	1
40.215	0.350037069	KNOCKOUT	lure	n/a	n/a	n/a	1
40.565	0.416617249	LUNGPOWER	lure	n/a	n/a	n/a	1
40.982	0.483391002	ALLOTMENT	lure	n/a	n/a	n/a	1
41.465	2.016579413	RATTLE	long	n/a	n/a	n/a	1
43.481	0.59999155	OVERDRAFT	lure	n/a	n/a	n/a	1
44.081	0.666655684	KINSMAN	lure	n/a	n/a	n/a	1
44.748	0.316661993	HAT	lure	n/a	n/a	n/a	1
45.065	0.666658722	GODMOTHER	lure	n/a	n/a	n/a	1
45.731	0.649988822	EXAMINER	lure	n/a	n/a	n/a	1
46.381	0.549991702	HEMLINE	lure	n/a	n/a	n/a	1
46.931	0.499994936	MAID	lure	n/a	n/a	n/a	1
47.431	0.3833229	OAF	lure	n/a	n/a	n/a	1
47.815	0.716661607	JITTERBUG	lure	n/a	n/a	n/a	1
48.531	0.683323854	INTERLUDE	lure	n/a	n/a	n/a	1
49.215	0.433327208	DEWDROP	lure	n/a	n/a	n/a	1
49.648	2.016637506	PARADE	long	n/a	n/a	n/a	1
51.665	0.383327447	CHORE	lure	n/a	n/a	n/a	1
52.048	0.749988074	GENERATION	lure	n/a	n/a	n/a	1
52.798	0.43332905	SENDER	lure	n/a	n/a	n/a	1
53.231	0.549992963	GAZETTE	lure	n/a	n/a	n/a	1
53.781	0.716658297	WASHER	lure	n/a	n/a	n/a	1
54.498	0.666657681	HACKSAW	lure	n/a	n/a	n/a	1
55.165	0.683321794	FACULTY	lure	n/a	n/a	n/a	1
55.848	0.69999118	WHISPERER	lure	n/a	n/a	n/a	1
56.548	0.649986284	CLAUSE	lure	n/a	n/a	n/a	1
57.198	0.649993378	AUTOLOADER	lure	n/a	n/a	n/a	1
57.848	0.633331104	SECTOR	lure	n/a	n/a	n/a	1
58.481	0.616652327	ATLAS	short	n/a	n/a	n/a	1
59.098	0.399990971	PROTEGE	lure	n/a	n/a	n/a	1
59.498	0.78332602	SWITCHBACK	lure	n/a	n/a	n/a	1
60.281	0.416662323	DAYBREAK	lure	n/a	n/a	n/a	1
60.698	0.416660151	IMMEDIACY	lure	n/a	n/a	n/a	1
61.115	0.683595988	CONTEXT	lure	n/a	n/a	n/a	1
61.798	0.366389187	GOAL	lure	n/a	n/a	n/a	1
62.165	0.50005752	GRAPH	lure	n/a	n/a	n/a	1
62.665	0.399987893	GIVER	lure	n/a	n/a	n/a	1
63.065	0.433270023	SPECIMEN	lure	n/a	n/a	n/a	1
63.498	0.666730975	GUITAR	lure	n/a	n/a	n/a	1
64.165	0.433253664	CHARGER	lure	n/a	n/a	n/a	1
64.598	0.366660004	AUDACITY	lure	n/a	n/a	n/a	1
64.965	0.534606249	DECOR	lure	n/a	n/a	n/a	1
65.499	0.402509871	WOODSHED	lure	n/a	n/a	n/a	1
65.902	0.42952746	PHARMACIST	lure	n/a	n/a	n/a	1
66.331	0.750055829	RUGBY	lure	n/a	n/a	n/a	1
67.081	0.616632745	COMPASS	short	n/a	n/a	n/a	1
67.698	0.500002457	PIKE	lure	n/a	n/a	n/a	1
68.198	0.316665452	TOLERATION	lure	n/a	n/a	n/a	1
68.515	0.466610455	SUBMISSION	lure	n/a	n/a	n/a	1
68.981	0.416661374	SOUTHERNER	lure	n/a	n/a	n/a	1
69.398	0.56665883	SELF	lure	n/a	n/a	n/a	1
69.964	0.733324229	RETENTION	lure	n/a	n/a	n/a	1
70.698	0.616652983	PAYDAY	lure	n/a	n/a	n/a	1
71.314	0.466664343	PATROLMAN	lure	n/a	n/a	n/a	1
71.781	0.73378242	PEDESTAL	lure	n/a	n/a	n/a	1
72.515	0.366202605	GLEE	lure	n/a	n/a	n/a	1
72.881	0.533320996	MAYHEM	lure	n/a	n/a	n/a	1
73.414	0.46666428	KNITWEAR	lure	n/a	n/a	n/a	1
73.881	0.366660851	INDIGO	lure	n/a	n/a	n/a	1
74.248	0.549993597	SHIRE	lure	n/a	n/a	n/a	1
74.798	0.433326928	EVERGREEN	lure	n/a	n/a	n/a	1
75.231	2.016637192	SACK	long	n/a	n/a	n/a	1
77.248	0.333330534	IMPLOSION	lure	n/a	n/a	n/a	1
77.581	0.499990868	PLAYTHING	lure	n/a	n/a	n/a	1
78.081	0.399996741	GANDER	lure	n/a	n/a	n/a	1
78.481	0.316660742	HILT	lure	n/a	n/a	n/a	1
78.798	0.64999091	HANDICAP	lure	n/a	n/a	n/a	1
79.448	0.383329455	SITTER	lure	n/a	n/a	n/a	1
79.831	0.599989382	BOOKSHELF	lure	n/a	n/a	n/a	1
80.431	0.699990127	GREASER	lure	n/a	n/a	n/a	1
81.131	0.433326955	FIDELITY	lure	n/a	n/a	n/a	1
81.564	0.683324729	BARRACUDA	lure	n/a	n/a	n/a	1
82.248	0.649992855	SINGER	lure	n/a	n/a	n/a	1
82.898	0.36666222	IMMUNOLOGY	lure	n/a	n/a	n/a	1
83.264	2.016637378	CABLE	long	n/a	n/a	n/a	1
85.281	0.649990492	COURTYARD	lure	n/a	n/a	n/a	1
85.931	0.616658319	VALENTINE	lure	n/a	n/a	n/a	1
86.548	0.550042035	SUPERSTAR	lure	n/a	n/a	n/a	1
87.098	0.766606502	LIBATION	lure	n/a	n/a	n/a	1
87.864	0.333324413	RITE	lure	n/a	n/a	n/a	1
88.198	0.749991477	FACT	lure	n/a	n/a	n/a	1
88.948	0.583331012	RECOMPENSE	lure	n/a	n/a	n/a	1
89.531	0.599985793	OFFICER	lure	n/a	n/a	n/a	1
90.131	0.466724436	MOUTHPIECE	lure	n/a	n/a	n/a	1
90.598	0.366637745	INFRACTION	lure	n/a	n/a	n/a	1
90.964	0.616618533	PANEL	short	n/a	n/a	n/a	1
91.581	0.649987429	NOBODY	lure	n/a	n/a	n/a	1
92.231	0.699996228	PSYCHO	lure	n/a	n/a	n/a	1
92.931	0.616657312	SCRIPT	lure	n/a	n/a	n/a	1
93.547	0.583325004	CONCAVITY	lure	n/a	n/a	n/a	1
94.131	0.683322696	AUTOCRACY	lure	n/a	n/a	n/a	1
94.814	0.3499941	ANGEL	lure	n/a	n/a	n/a	1
95.164	0.499992763	ACROBAT	lure	n/a	n/a	n/a	1
95.664	0.716659094	MENTOR	lure	n/a	n/a	n/a	1
96.381	0.64998586	CROSSWIND	lure	n/a	n/a	n/a	1
97.031	0.716792959	RAGTAG	lure	n/a	n/a	n/a	1
97.748	0.399914319	GAZEBO	lure	n/a	n/a	n/a	1
98.147	0.749937785	PUBLICITY	lure	n/a	n/a	n/a	1
98.897	0.416658998	STEALTH	lure	n/a	n/a	n/a	1
99.314	2.016634788	CHISEL	long	n/a	n/a	n/a	1
101.331	0.733327155	COGNAC	lure	n/a	n/a	n/a	1
102.064	0.666696405	ACCIDENT	lure	n/a	n/a	n/a	1
102.731	0.517054503	LEADER	lure	n/a	n/a	n/a	1
103.248	0.616571325	DOORFRAME	lure	n/a	n/a	n/a	1
103.864	0.599705132	MEDIATOR	lure	n/a	n/a	n/a	1
104.464	0.533267491	BARITONE	lure	n/a	n/a	n/a	1
104.997	0.483321285	EARRING	lure	n/a	n/a	n/a	1
105.481	0.566723496	GODFATHER	lure	n/a	n/a	n/a	1
106.047	0.700042567	CRESCENT	lure	n/a	n/a	n/a	1
106.747	0.583210291	ELEVATION	lure	n/a	n/a	n/a	1
107.331	1.066652999	MULBERRY	fruit	732	2	2	1
108.397	0.56811915	ROSARY	lure	n/a	n/a	n/a	1
108.965	0.598526555	REVEREND	lure	n/a	n/a	n/a	1
109.564	0.566662281	MUSKETEER	lure	n/a	n/a	n/a	1
110.131	0.399995835	DIMENSION	lure	n/a	n/a	n/a	1
110.531	0.449992511	PIANIST	lure	n/a	n/a	n/a	1
110.981	0.533325685	BENEFICENT	lure	n/a	n/a	n/a	1
111.514	0.516661259	SURVIVAL	lure	n/a	n/a	n/a	1
112.031	0.733385199	HOBO	lure	n/a	n/a	n/a	1
112.764	0.466594067	CROSSBAR	lure	n/a	n/a	n/a	1
113.231	0.799990566	GOVERNOR	lure	n/a	n/a	n/a	1
114.03	0.583431374	CORNBREAD	lure	n/a	n/a	n/a	1
114.614	0.349890946	DIRECTIVE	lure	n/a	n/a	n/a	1
114.964	0.733787006	TINFOIL	lure	n/a	n/a	n/a	1
115.698	0.599527084	UPSWING	lure	n/a	n/a	n/a	1
116.297	0.616659084	CHROME	short	n/a	n/a	n/a	1
116.914	0.733369168	FURY	lure	n/a	n/a	n/a	1
117.647	0.599992651	BLOWGUN	lure	n/a	n/a	n/a	1
118.247	0.333282504	SUn/aISE	lure	n/a	n/a	n/a	1
118.58	0.450097967	CABOOSE	lure	n/a	n/a	n/a	1
119.031	0.783303995	FREEMAN	lure	n/a	n/a	n/a	1
119.814	0.749902667	ACTIVITY	lure	n/a	n/a	n/a	1
120.564	0.683323356	SALAD	lure	n/a	n/a	n/a	1
121.247	0.349993751	DOGMATISM	lure	n/a	n/a	n/a	1
121.597	0.549993015	BOOKLET	lure	n/a	n/a	n/a	1
122.147	0.716652015	BANQUET	lure	n/a	n/a	n/a	1
122.864	0.733327023	STUPIDITY	lure	n/a	n/a	n/a	1
123.597	0.433328667	SWEATSHOP	lure	n/a	n/a	n/a	1
124.03	0.616658133	JAIL	short	n/a	n/a	n/a	1
124.647	0.63331972	NOTHING	lure	n/a	n/a	n/a	1
125.28	0.699993902	EROSION	lure	n/a	n/a	n/a	1
125.98	0.516656758	GLOBE	lure	n/a	n/a	n/a	1
126.497	0.599995778	OUTRIGGER	lure	n/a	n/a	n/a	1
127.097	0.636964432	MIDWEEK	lure	n/a	n/a	n/a	1
127.734	0.329689459	LAYMEN	lure	n/a	n/a	n/a	1
128.064	0.449992914	COMPETENCE	lure	n/a	n/a	n/a	1
128.514	0.549989233	CHEESE	lure	n/a	n/a	n/a	1
129.064	0.616661981	MATCHBOX	lure	n/a	n/a	n/a	1
129.68	0.399992004	SOOTHSAYER	lure	n/a	n/a	n/a	1
130.08	0.549991346	ROSEBUD	lure	n/a	n/a	n/a	1
130.63	0.78436303	CLASSROOM	lure	n/a	n/a	n/a	1
131.415	0.398956467	FALLACY	lure	n/a	n/a	n/a	1
131.814	0.716655813	UPPERCUT	lure	n/a	n/a	n/a	1
132.53	0.616657237	SAND	short	n/a	n/a	n/a	1
133.147	0.766656038	WITCHCRAFT	lure	n/a	n/a	n/a	1
133.914	0.499996738	PUEBLO	lure	n/a	n/a	n/a	1
134.414	0.76665316	DEVOLUTION	lure	n/a	n/a	n/a	1
135.18	0.499993463	EXPERT	lure	n/a	n/a	n/a	1
135.68	0.650072584	PINSTRIPE	lure	n/a	n/a	n/a	1
136.33	0.483291681	SITUATION	lure	n/a	n/a	n/a	1
136.814	0.733274171	NOVELIST	lure	n/a	n/a	n/a	1
137.547	0.399992332	SCRIMMAGE	lure	n/a	n/a	n/a	1
137.947	0.733374322	EXECUTOR	lure	n/a	n/a	n/a	1
138.68	0.449947421	HARDCOVER	lure	n/a	n/a	n/a	1
139.13	0.316756506	PROJECT	lure	n/a	n/a	n/a	1
139.447	0.549897121	MERCER	lure	n/a	n/a	n/a	1
139.997	0.633324973	HONEYBEE	lure	n/a	n/a	n/a	1
140.63	0.649990885	PARISH	lure	n/a	n/a	n/a	1
141.28	2.016700283	LEAD	long	n/a	n/a	n/a	1
143.297	0.566594456	UNION	lure	n/a	n/a	n/a	1
143.863	0.516657309	STAGNATION	lure	n/a	n/a	n/a	1
144.38	0.666662601	CAMPER	lure	n/a	n/a	n/a	1
145.047	0.666654597	HANDYMAN	lure	n/a	n/a	n/a	1
145.713	0.499995507	GENDER	lure	n/a	n/a	n/a	1
146.213	0.599988485	VALIDATION	lure	n/a	n/a	n/a	1
146.813	0.416661156	DESPERADO	lure	n/a	n/a	n/a	1
147.23	0.633325552	RELIGION	lure	n/a	n/a	n/a	1
147.863	0.583321333	CHICKPEA	lure	n/a	n/a	n/a	1
148.447	0.716661382	CADDY	lure	n/a	n/a	n/a	1
149.163	0.583323694	GAVEL	lure	n/a	n/a	n/a	1
149.747	0.666656115	BRIDGE	short	n/a	n/a	n/a	1
150.413	0.733324633	BODYWORK	lure	n/a	n/a	n/a	1
151.147	0.349995425	LATENCY	lure	n/a	n/a	n/a	1
151.497	0.349991559	MINSTREL	lure	n/a	n/a	n/a	1
151.847	0.516665926	BRANDY	lure	n/a	n/a	n/a	1
152.363	0.74998252	DIVIDEND	lure	n/a	n/a	n/a	1
153.113	0.716662705	PRIMACY	lure	n/a	n/a	n/a	1
153.83	0.599992074	WOODYARD	lure	n/a	n/a	n/a	1
154.43	0.583321846	EYELASH	lure	n/a	n/a	n/a	1
155.013	0.404114365	PENn/aT	lure	n/a	n/a	n/a	1
155.417	0.512535735	WHISKY	lure	n/a	n/a	n/a	1
155.93	0.549997298	CLOVERLEAF	lure	n/a	n/a	n/a	1
156.48	0.666658439	POINTER	lure	n/a	n/a	n/a	1
157.147	0.750044745	HARE	lure	n/a	n/a	n/a	1
157.897	0.566600383	HOUSEBOAT	lure	n/a	n/a	n/a	1
158.463	2.016644656	RIDGE	long	n/a	n/a	n/a	1
160.48	0.349993295	SEPARATION	lure	n/a	n/a	n/a	1
160.83	0.749983314	COVE	lure	n/a	n/a	n/a	1
161.58	0.499997653	ZENITH	lure	n/a	n/a	n/a	1
162.08	0.749989768	VISE	lure	n/a	n/a	n/a	1
162.83	0.749988243	MANDOLIN	lure	n/a	n/a	n/a	1
163.58	0.583320859	BOBSLED	lure	n/a	n/a	n/a	1
164.163	0.316664769	FLIGHT	lure	n/a	n/a	n/a	1
164.48	0.433328548	PAUPER	lure	n/a	n/a	n/a	1
164.913	0.366665352	ELLIPSE	lure	n/a	n/a	n/a	1
165.28	0.683318847	AGITATOR	lure	n/a	n/a	n/a	1
165.963	0.399993993	CLOCK	lure	n/a	n/a	n/a	1
166.363	0.484446403	HIGHWAY	lure	n/a	n/a	n/a	1
166.848	2.015599977	BOAT	long	n/a	n/a	n/a	1
168.863	0.416580364	DESK	lure	n/a	n/a	n/a	1
169.28	0.78331895	FRUGALITY	lure	n/a	n/a	n/a	1
170.063	0.53332982	ALGORITHM	lure	n/a	n/a	n/a	1
170.596	0.499991883	PARKLAND	lure	n/a	n/a	n/a	1
171.096	0.64999702	IDENTITY	lure	n/a	n/a	n/a	1
171.746	0.583320408	AUTUMN	lure	n/a	n/a	n/a	1
172.33	0.533327652	HIGHWAYMAN	lure	n/a	n/a	n/a	1
172.863	0.633323748	STEWARD	lure	n/a	n/a	n/a	1
173.496	0.349992362	DELEGATION	lure	n/a	n/a	n/a	1
173.846	0.433332071	VULGARITY	lure	n/a	n/a	n/a	1
174.28	0.633325041	SHEET	lure	n/a	n/a	n/a	1
174.913	0.616654387	AQUEDUCT	lure	n/a	n/a	n/a	1
175.53	2.016642684	ENGINE	long	n/a	n/a	n/a	1
177.546	0.616656355	THEOLOGIAN	lure	n/a	n/a	n/a	1
178.163	0.683317648	BROILER	lure	n/a	n/a	n/a	1
178.846	0.549999725	DUALISM	lure	n/a	n/a	n/a	1
179.396	0.466657551	PUN	lure	n/a	n/a	n/a	1
179.863	0.349995331	WAREHOUSE	lure	n/a	n/a	n/a	1
180.213	0.566659039	BARON	lure	n/a	n/a	n/a	1
180.78	0.34999431	AIRSPEED	lure	n/a	n/a	n/a	1
181.13	0.399996688	BACKSIDE	lure	n/a	n/a	n/a	1
181.53	0.783319145	NIGHTCAP	lure	n/a	n/a	n/a	1
182.313	0.566661854	BUN	lure	n/a	n/a	n/a	1
182.88	0.766654765	WILLPOWER	lure	n/a	n/a	n/a	1
183.646	0.369631329	JUDGMENT	lure	n/a	n/a	n/a	1
184.016	0.613685901	ROPE	short	n/a	n/a	n/a	1
184.63	0.450055161	STOVEPIPE	lure	n/a	n/a	n/a	1
185.08	0.499933598	NARCISSISM	lure	n/a	n/a	n/a	1
185.579	0.549992872	VIOLINIST	lure	n/a	n/a	n/a	1
186.129	0.533329692	LAXATIVE	lure	n/a	n/a	n/a	1
186.663	0.333326261	LINEAGE	lure	n/a	n/a	n/a	1
186.996	0.633317835	PATELLA	lure	n/a	n/a	n/a	1
187.629	0.716664162	CRACKDOWN	lure	n/a	n/a	n/a	1
188.346	0.383326593	PIRACY	lure	n/a	n/a	n/a	1
188.729	0.666655784	MATINEE	lure	n/a	n/a	n/a	1
189.396	0.516661851	SWINGER	lure	n/a	n/a	n/a	1
189.913	0.566713466	SEVERITY	lure	n/a	n/a	n/a	1
190.479	0.549938436	TECHNIQUE	lure	n/a	n/a	n/a	1
191.029	0.400264283	BRINK	lure	n/a	n/a	n/a	1
191.43	0.483056065	POLYGON	lure	n/a	n/a	n/a	1
191.913	0.616655851	PYRAMID	short	n/a	n/a	n/a	1
192.529	0.816653007	ANIMATION	lure	n/a	n/a	n/a	1
193.346	0.533328343	SUNSTROKE	lure	n/a	n/a	n/a	1
193.879	0.366723704	AIRFIELD	lure	n/a	n/a	n/a	1
194.246	0.333266551	DISSENSION	lure	n/a	n/a	n/a	1
194.579	0.333327018	POLICEMEN	lure	n/a	n/a	n/a	1
194.913	0.683323076	AURORA	lure	n/a	n/a	n/a	1
195.596	0.533329666	GARMENT	lure	n/a	n/a	n/a	1
196.129	0.349993047	BUFFET	lure	n/a	n/a	n/a	1
196.479	0.566658614	DIPHTHERIA	lure	n/a	n/a	n/a	1
197.046	0.516657657	SIRLOIN	lure	n/a	n/a	n/a	1
197.563	0.666658236	LEGEND	lure	n/a	n/a	n/a	1
198.229	0.39999084	MILLSTONE	lure	n/a	n/a	n/a	1
198.629	0.5999943	ITEM	lure	n/a	n/a	n/a	1
199.229	0.516665066	VESICLE	lure	n/a	n/a	n/a	1
199.746	0.383322608	POSITIVISM	lure	n/a	n/a	n/a	1
200.129	1.01958904	WATERMELON	fruit	669	2	2	1
201.149	0.730389011	MORTUARY	lure	n/a	n/a	n/a	1
201.879	0.649986408	COMMITMENT	lure	n/a	n/a	n/a	1
202.529	0.699992403	FLUENCY	lure	n/a	n/a	n/a	1
203.229	0.64999176	GALLERY	lure	n/a	n/a	n/a	1
203.879	0.699991586	POSTAGE	lure	n/a	n/a	n/a	1
204.579	0.333326085	ALTO	lure	n/a	n/a	n/a	1
204.913	0.61666057	CROCODILE	lure	n/a	n/a	n/a	1
205.529	0.733317858	HEATHER	lure	n/a	n/a	n/a	1
206.263	0.51666279	EYELINER	lure	n/a	n/a	n/a	1
206.779	0.499994395	ORATION	lure	n/a	n/a	n/a	1
207.279	0.553699369	KIDNEY	lure	n/a	n/a	n/a	1
207.833	0.496286397	HAIKU	lure	n/a	n/a	n/a	1
208.329	1.019859265	RASPBERRY	fruit	589	2	2	1
209.349	0.346784421	MACE	lure	n/a	n/a	n/a	1
209.696	0.766653313	HAWKER	lure	n/a	n/a	n/a	1
210.462	0.316667519	SIDELINE	lure	n/a	n/a	n/a	1
210.779	0.416655433	BETTERMENT	lure	n/a	n/a	n/a	1
211.196	0.4333315	SUNFISH	lure	n/a	n/a	n/a	1
211.629	0.399994791	MONARCHY	lure	n/a	n/a	n/a	1
212.029	0.549993236	GLORY	lure	n/a	n/a	n/a	1
212.579	0.74998408	OUTCRY	lure	n/a	n/a	n/a	1
213.329	0.66666369	COMPOSURE	lure	n/a	n/a	n/a	1
213.996	0.649989657	HALFBACK	lure	n/a	n/a	n/a	1
214.646	0.666656651	POPPER	lure	n/a	n/a	n/a	1
215.312	0.699991423	MISSILE	lure	n/a	n/a	n/a	1
216.012	0.416660023	TEASPOON	lure	n/a	n/a	n/a	1
216.429	1.016653047	CHERRY	fruit	554	2	2	1
217.446	0.333330005	BAKER	lure	n/a	n/a	n/a	1
217.779	0.549990732	BUGABOO	lure	n/a	n/a	n/a	1
218.329	0.483326593	TORSO	lure	n/a	n/a	n/a	1
218.812	0.616658287	ORDEAL	lure	n/a	n/a	n/a	1
219.429	0.683323085	INSTINCT	lure	n/a	n/a	n/a	1
220.112	0.516660191	DALE	lure	n/a	n/a	n/a	1
220.629	0.349994857	ALOE	lure	n/a	n/a	n/a	1
220.979	0.599988079	LUCIDITY	lure	n/a	n/a	n/a	1
221.579	0.416663524	WINDFALL	lure	n/a	n/a	n/a	1
221.996	0.399996077	STEALER	lure	n/a	n/a	n/a	1
222.396	0.500049079	BROADCLOTH	lure	n/a	n/a	n/a	1
222.896	0.549934709	MADHOUSE	lure	n/a	n/a	n/a	1
223.446	0.333331524	SOMEBODY	lure	n/a	n/a	n/a	1
223.779	0.683321656	BICYCLIST	lure	n/a	n/a	n/a	1
224.462	0.433392043	GOSPEL	lure	n/a	n/a	n/a	1
224.896	0.683366608	VANE	lure	n/a	n/a	n/a	1
225.579	0.349888917	SHOCKWAVE	lure	n/a	n/a	n/a	1
225.929	0.616656583	PRETZEL	lure	n/a	n/a	n/a	1
226.546	n/a	ACCORDION	lure	n/a	n/a	n/a	1
238.012	0.566661148	WATERFALL	lure	n/a	n/a	n/a	1
238.579	0.33337281	ENGRAVER	lure	n/a	n/a	n/a	1
238.912	0.683277458	DRAPERY	lure	n/a	n/a	n/a	1
239.595	0.64999285	MOONLIGHT	lure	n/a	n/a	n/a	1
240.245	0.733380855	SEEKER	lure	n/a	n/a	n/a	1
240.979	0.666599993	DIOXIDE	lure	n/a	n/a	n/a	1
241.645	0.333327561	EASEMENT	lure	n/a	n/a	n/a	1
241.979	0.616657092	COMPASS	short	n/a	n/a	n/a	1
242.595	0.649987347	MANTEL	lure	n/a	n/a	n/a	1
243.245	0.783328139	FADEOUT	lure	n/a	n/a	n/a	1
244.029	0.549992208	INHUMANITY	lure	n/a	n/a	n/a	1
244.579	0.399987304	SALTWATER	lure	n/a	n/a	n/a	1
244.979	0.649997294	JESTER	lure	n/a	n/a	n/a	1
245.629	0.333325499	SALIVA	lure	n/a	n/a	n/a	1
245.962	0.466663445	DISCORD	lure	n/a	n/a	n/a	1
246.429	0.450039226	TURBULENCE	lure	n/a	n/a	n/a	1
246.879	0.58327958	REFINER	lure	n/a	n/a	n/a	1
247.462	0.733320491	FINGERNAIL	lure	n/a	n/a	n/a	1
248.195	0.416656838	BRAVERY	lure	n/a	n/a	n/a	1
248.612	0.416664704	KNOT	lure	n/a	n/a	n/a	1
249.029	0.716652754	IDIOM	lure	n/a	n/a	n/a	1
249.745	0.383335968	NODE	lure	n/a	n/a	n/a	1
250.129	1.016651389	CRANBERRY	fruit	646	2	2	1
251.145	0.31666029	CATACOMB	lure	n/a	n/a	n/a	1
251.462	0.616653876	FREEBOARD	lure	n/a	n/a	n/a	1
252.079	0.749995073	DRAWBACK	lure	n/a	n/a	n/a	1
252.829	0.649991897	CORRECTION	lure	n/a	n/a	n/a	1
253.479	0.449989746	PETROLEUM	lure	n/a	n/a	n/a	1
253.929	0.666663886	COACHMEN	lure	n/a	n/a	n/a	1
254.595	0.699987317	NUGGET	lure	n/a	n/a	n/a	1
255.295	0.566652088	FEEDBACK	lure	n/a	n/a	n/a	1
255.862	0.56666611	SOMBRERO	lure	n/a	n/a	n/a	1
256.429	0.66665915	PICKUP	lure	n/a	n/a	n/a	1
257.095	0.466719253	FIESTA	lure	n/a	n/a	n/a	1
257.562	0.333266842	PILLOWCASE	lure	n/a	n/a	n/a	1
257.895	2.016637836	CABLE	long	n/a	n/a	n/a	1
259.912	0.433324879	COLONY	lure	n/a	n/a	n/a	1
260.345	0.353090377	GUPPY	lure	n/a	n/a	n/a	1
260.698	0.666562682	LYMPH	lure	n/a	n/a	n/a	1
261.365	0.513657687	DISHONESTY	lure	n/a	n/a	n/a	1
261.878	0.716714963	BEARD	lure	n/a	n/a	n/a	1
262.595	0.699929826	DROPLET	lure	n/a	n/a	n/a	1
263.295	0.499995339	BANDWAGON	lure	n/a	n/a	n/a	1
263.795	0.766661654	MOGUL	lure	n/a	n/a	n/a	1
264.562	0.583323182	HOSE	lure	n/a	n/a	n/a	1
265.145	0.383329708	BRAT	lure	n/a	n/a	n/a	1
265.528	0.699988143	SEALER	lure	n/a	n/a	n/a	1
266.228	0.616662654	JAIL	short	n/a	n/a	n/a	1
266.845	0.666652464	LEGUME	lure	n/a	n/a	n/a	1
267.512	0.599992861	COLT	lure	n/a	n/a	n/a	1
268.112	0.716653352	CONE	lure	n/a	n/a	n/a	1
268.828	0.483324905	SECRETARY	lure	n/a	n/a	n/a	1
269.312	0.599999181	NONSTARTER	lure	n/a	n/a	n/a	1
269.912	0.499987818	INTERPLAY	lure	n/a	n/a	n/a	1
270.412	0.683326351	VOLATILITY	lure	n/a	n/a	n/a	1
271.095	0.750028008	ANCESTRY	lure	n/a	n/a	n/a	1
271.845	0.68548913	DUFFEL	lure	n/a	n/a	n/a	1
272.53	0.614451908	REALIST	lure	n/a	n/a	n/a	1
273.145	0.649989339	SUGARCANE	lure	n/a	n/a	n/a	1
273.795	0.449993774	DECEDENT	lure	n/a	n/a	n/a	1
274.245	0.766659479	FARCE	lure	n/a	n/a	n/a	1
275.012	0.616659628	PANEL	short	n/a	n/a	n/a	1
275.628	0.334355654	RELATIVIST	lure	n/a	n/a	n/a	1
275.963	0.583582615	VESSEL	lure	n/a	n/a	n/a	1
276.546	0.598703453	STIGMA	lure	n/a	n/a	n/a	1
277.145	0.433331093	MONOTONE	lure	n/a	n/a	n/a	1
277.578	0.649984668	ADVOCACY	lure	n/a	n/a	n/a	1
278.228	0.649995837	CLUMP	lure	n/a	n/a	n/a	1
278.878	0.38332874	GROUNDSMAN	lure	n/a	n/a	n/a	1
279.262	0.716660596	RUT	lure	n/a	n/a	n/a	1
279.978	0.599983223	MOCHA	lure	n/a	n/a	n/a	1
280.578	0.333331867	WIGHT	lure	n/a	n/a	n/a	1
280.911	0.516658737	PREMIERE	lure	n/a	n/a	n/a	1
281.428	0.399994384	GASTRONOMY	lure	n/a	n/a	n/a	1
281.828	0.44999372	LEVITY	lure	n/a	n/a	n/a	1
282.278	0.616658319	SNOWSTORM	lure	n/a	n/a	n/a	1
282.895	0.483321126	SEDAN	lure	n/a	n/a	n/a	1
283.378	1.016654832	MANGO	fruit	629	2	2	1
284.395	0.683329834	STAPLER	lure	n/a	n/a	n/a	1
285.078	0.583319025	JUDO	lure	n/a	n/a	n/a	1
285.661	0.416661611	TEAMWORK	lure	n/a	n/a	n/a	1
286.078	0.383328249	SPACESHIP	lure	n/a	n/a	n/a	1
286.461	0.733329025	FOOTAGE	lure	n/a	n/a	n/a	1
287.195	0.633323346	MOTORCADE	lure	n/a	n/a	n/a	1
287.828	0.5499858	HAILSTORM	lure	n/a	n/a	n/a	1
288.378	0.616663979	EVOLUTION	lure	n/a	n/a	n/a	1
288.995	0.666654944	OUTSIDER	lure	n/a	n/a	n/a	1
289.661	0.51666165	DICE	lure	n/a	n/a	n/a	1
290.178	0.51665251	HEDONIST	lure	n/a	n/a	n/a	1
290.695	0.58333121	HAIR	lure	n/a	n/a	n/a	1
291.278	0.633318853	WAD	lure	n/a	n/a	n/a	1
291.911	2.016644339	PARADE	long	n/a	n/a	n/a	1
293.928	0.416654744	RISER	lure	n/a	n/a	n/a	1
294.345	0.349995152	NYMPH	lure	n/a	n/a	n/a	1
294.695	0.499994986	RADIOGRAPH	lure	n/a	n/a	n/a	1
295.195	0.549998346	SCAVENGER	lure	n/a	n/a	n/a	1
295.745	0.716650619	SHIPMENT	lure	n/a	n/a	n/a	1
296.461	0.669300977	SLEET	lure	n/a	n/a	n/a	1
297.131	0.651120827	SIBLING	lure	n/a	n/a	n/a	1
297.782	0.712884465	PITCHER	lure	n/a	n/a	n/a	1
298.495	0.583326419	DEVIANCY	lure	n/a	n/a	n/a	1
299.078	0.349997424	REEF	lure	n/a	n/a	n/a	1
299.428	0.383372546	WARMTH	lure	n/a	n/a	n/a	1
299.811	2.016592276	CHISEL	long	n/a	n/a	n/a	1
301.828	0.583327637	MILITARISM	lure	n/a	n/a	n/a	1
302.411	0.533319864	ANTLER	lure	n/a	n/a	n/a	1
302.945	0.6999917	CROWBAR	lure	n/a	n/a	n/a	1
303.645	0.533330777	PROPORTION	lure	n/a	n/a	n/a	1
304.178	0.749988183	ALTERNATOR	lure	n/a	n/a	n/a	1
304.928	0.750048911	SCUBA	lure	n/a	n/a	n/a	1
305.678	0.499965875	RIDER	lure	n/a	n/a	n/a	1
306.178	0.583293467	RELUCTANCE	lure	n/a	n/a	n/a	1
306.761	0.516692354	SANATORIUM	lure	n/a	n/a	n/a	1
307.278	0.733287713	CROSSOVER	lure	n/a	n/a	n/a	1
308.011	0.616658275	ATLAS	short	n/a	n/a	n/a	1
308.628	0.433376037	MISTRIAL	lure	n/a	n/a	n/a	1
309.061	0.699943317	ATTAINMENT	lure	n/a	n/a	n/a	1
309.761	0.549993451	GURU	lure	n/a	n/a	n/a	1
310.311	0.383318849	SIMPLICITY	lure	n/a	n/a	n/a	1
310.694	0.733998663	BACKBEND	lure	n/a	n/a	n/a	1
311.428	0.69932341	INCLINE	lure	n/a	n/a	n/a	1
312.128	0.66665318	BLACKHEAD	lure	n/a	n/a	n/a	1
312.794	0.583328664	HOLLY	lure	n/a	n/a	n/a	1
313.378	0.399995138	RINGLEADER	lure	n/a	n/a	n/a	1
313.778	0.599991378	GLADIATOR	lure	n/a	n/a	n/a	1
314.378	0.599992663	WIFE	lure	n/a	n/a	n/a	1
314.978	0.318401889	LUXURY	lure	n/a	n/a	n/a	1
315.296	0.548252385	CARDIOGRAM	lure	n/a	n/a	n/a	1
315.844	0.416656013	OVERGROWTH	lure	n/a	n/a	n/a	1
316.261	0.649992689	PATCH	short	n/a	n/a	n/a	1
316.911	0.683322573	RAPPORT	lure	n/a	n/a	n/a	1
317.594	0.74998807	DETENTION	lure	n/a	n/a	n/a	1
318.344	0.651689635	PRETENDER	lure	n/a	n/a	n/a	1
318.996	0.581624477	FOLKLORIST	lure	n/a	n/a	n/a	1
319.578	0.666708107	SCHISM	lure	n/a	n/a	n/a	1
320.244	0.549947177	SORBET	lure	n/a	n/a	n/a	1
320.794	0.483319442	MARE	lure	n/a	n/a	n/a	1
321.278	0.433327589	AFTERTASTE	lure	n/a	n/a	n/a	1
321.711	0.666665729	EXCISION	lure	n/a	n/a	n/a	1
322.378	0.783320022	BOTANIST	lure	n/a	n/a	n/a	1
323.161	0.649993334	PLAYWRIGHT	lure	n/a	n/a	n/a	1
323.811	0.449992997	NUTMEG	lure	n/a	n/a	n/a	1
324.261	0.43331959	NAVEL	lure	n/a	n/a	n/a	1
324.694	2.016648969	SACK	long	n/a	n/a	n/a	1
326.711	0.416658402	JAMBOREE	lure	n/a	n/a	n/a	1
327.128	0.649989323	AFTERCARE	lure	n/a	n/a	n/a	1
327.778	0.6999823	RESIDUE	lure	n/a	n/a	n/a	1
328.477	0.500002909	SLEW	lure	n/a	n/a	n/a	1
328.977	0.333319963	EXPIRATION	lure	n/a	n/a	n/a	1
329.311	0.549996195	EMBOLISM	lure	n/a	n/a	n/a	1
329.861	0.683320806	PHONEBOOTH	lure	n/a	n/a	n/a	1
330.544	0.450001316	DENTIST	lure	n/a	n/a	n/a	1
330.994	0.316656013	COACHMAN	lure	n/a	n/a	n/a	1
331.311	0.699988284	HANDMAIDEN	lure	n/a	n/a	n/a	1
332.011	0.466659539	SCROLLWORK	lure	n/a	n/a	n/a	1
332.477	0.418605897	REMISSION	lure	n/a	n/a	n/a	1
332.896	2.014699438	RIDGE	long	n/a	n/a	n/a	1
334.911	0.316714642	POWDERPUFF	lure	n/a	n/a	n/a	1
335.227	0.649940911	ATTORNEY	lure	n/a	n/a	n/a	1
335.877	0.649985993	APATHY	lure	n/a	n/a	n/a	1
336.527	0.516664211	ARISTOCRAT	lure	n/a	n/a	n/a	1
337.044	0.749985384	SLINGER	lure	n/a	n/a	n/a	1
337.794	0.383330508	PALETTE	lure	n/a	n/a	n/a	1
338.177	0.699990521	COUCH	lure	n/a	n/a	n/a	1
338.877	0.366658142	COPIER	lure	n/a	n/a	n/a	1
339.244	0.499992258	COCKER	lure	n/a	n/a	n/a	1
339.744	0.416665794	SANCTUARY	lure	n/a	n/a	n/a	1
340.161	0.349987376	LOLLIPOP	lure	n/a	n/a	n/a	1
340.511	0.670663703	MUSTANG	lure	n/a	n/a	n/a	1
341.181	0.664341715	SAND	short	n/a	n/a	n/a	1
341.846	0.398307499	GROUPIE	lure	n/a	n/a	n/a	1
342.244	0.599988107	FIGURINE	lure	n/a	n/a	n/a	1
342.844	0.483332681	GIZZARD	lure	n/a	n/a	n/a	1
343.327	0.549990066	FREEZER	lure	n/a	n/a	n/a	1
343.877	0.433323952	DENIAL	lure	n/a	n/a	n/a	1
344.311	0.516661788	OCCUPANT	lure	n/a	n/a	n/a	1
344.827	0.416664464	WORKSHEET	lure	n/a	n/a	n/a	1
345.244	0.516661221	ADVERT	lure	n/a	n/a	n/a	1
345.761	0.683319613	FOREBODING	lure	n/a	n/a	n/a	1
346.444	0.533322656	ABSOLUTION	lure	n/a	n/a	n/a	1
346.977	0.633331965	CROUTON	lure	n/a	n/a	n/a	1
347.611	0.383319795	PREMISE	lure	n/a	n/a	n/a	1
347.994	0.483334429	GLAMOR	lure	n/a	n/a	n/a	1
348.477	0.333328666	CONVENTION	lure	n/a	n/a	n/a	1
348.811	0.633319296	REVOCATION	lure	n/a	n/a	n/a	1
349.444	0.616658041	BRIDGE	short	n/a	n/a	n/a	1
350.061	0.54999755	PIZZA	lure	n/a	n/a	n/a	1
350.611	0.466657434	MUTUALITY	lure	n/a	n/a	n/a	1
351.077	0.33332793	AFTERNOON	lure	n/a	n/a	n/a	1
351.411	0.500060434	BRIAR	lure	n/a	n/a	n/a	1
351.911	0.437792183	ANONYMITY	lure	n/a	n/a	n/a	1
352.348	0.628791685	FEEDER	lure	n/a	n/a	n/a	1
352.977	0.354338101	UNLOADER	lure	n/a	n/a	n/a	1
353.331	0.528983874	BROWNSTONE	lure	n/a	n/a	n/a	1
353.86	0.333328592	HESITANCE	lure	n/a	n/a	n/a	1
354.194	0.749991679	SUPPLIER	lure	n/a	n/a	n/a	1
354.944	0.41669892	SOLOIST	lure	n/a	n/a	n/a	1
355.36	0.416621685	SWEETIE	lure	n/a	n/a	n/a	1
355.777	0.533328031	CITIZEN	lure	n/a	n/a	n/a	1
356.31	0.666653047	BACKTALK	lure	n/a	n/a	n/a	1
356.977	0.450035708	SPARROW	lure	n/a	n/a	n/a	1
357.427	1.021405241	ORANGE	fruit	668	2	2	1
358.449	0.578531145	INCITEMENT	lure	n/a	n/a	n/a	1
359.027	0.433331757	SOUL	lure	n/a	n/a	n/a	1
359.46	0.499984744	OVERLAP	lure	n/a	n/a	n/a	1
359.96	0.716656542	FLINT	lure	n/a	n/a	n/a	1
360.677	0.683329467	SPREE	lure	n/a	n/a	n/a	1
361.36	0.433328162	MUSICALITY	lure	n/a	n/a	n/a	1
361.794	0.351743272	THRESHOLD	lure	n/a	n/a	n/a	1
362.145	0.666341166	COMMUNISM	lure	n/a	n/a	n/a	1
362.812	0.365231243	PROFUSION	lure	n/a	n/a	n/a	1
363.177	0.34998969	EXERTION	lure	n/a	n/a	n/a	1
363.527	0.683323427	ICEBOAT	lure	n/a	n/a	n/a	1
364.21	0.46665799	LETTER	lure	n/a	n/a	n/a	1
364.677	0.649990541	ADMONITION	lure	n/a	n/a	n/a	1
365.327	0.550000306	HILL	lure	n/a	n/a	n/a	1
365.877	1.017500028	CHERRY	fruit	586	2	2	1
366.894	0.482476299	GANGSTER	lure	n/a	n/a	n/a	1
367.377	0.616660191	NECKLACE	lure	n/a	n/a	n/a	1
367.994	0.366655924	FRACTURE	lure	n/a	n/a	n/a	1
368.36	0.633326206	CLEARANCE	lure	n/a	n/a	n/a	1
368.994	0.39999383	ASSESSMENT	lure	n/a	n/a	n/a	1
369.394	0.749995307	ARSON	lure	n/a	n/a	n/a	1
370.144	0.749985723	DOCTRINE	lure	n/a	n/a	n/a	1
370.894	0.46665668	TUB	lure	n/a	n/a	n/a	1
371.36	0.733321368	BRILLIANCY	lure	n/a	n/a	n/a	1
372.094	0.716664101	ARTILLERY	lure	n/a	n/a	n/a	1
372.81	0.737950754	HEADMAN	lure	n/a	n/a	n/a	1
373.548	0.332561609	PLENITUDE	lure	n/a	n/a	n/a	1
373.881	2.063372336	BOAT	long	n/a	n/a	n/a	1
375.944	0.64938948	COPYCAT	lure	n/a	n/a	n/a	1
376.593	0.666658055	DRAGON	lure	n/a	n/a	n/a	1
377.26	0.333326245	SHARPENER	lure	n/a	n/a	n/a	1
377.593	0.416663053	MONEYMAKER	lure	n/a	n/a	n/a	1
378.01	0.73332695	PAINTWORK	lure	n/a	n/a	n/a	1
378.743	0.566656241	CIGAR	lure	n/a	n/a	n/a	1
379.31	0.570117238	MOTORWAY	lure	n/a	n/a	n/a	1
379.88	0.384616745	CELL	lure	n/a	n/a	n/a	1
380.265	0.645248336	LEUKEMIA	lure	n/a	n/a	n/a	1
380.91	0.70003479	DRAUGHT	lure	n/a	n/a	n/a	1
381.61	0.433281311	JAILER	lure	n/a	n/a	n/a	1
382.043	2.016636723	LEAD	long	n/a	n/a	n/a	1
384.06	0.316661438	PASTIME	lure	n/a	n/a	n/a	1
384.377	0.383325396	DOMINION	lure	n/a	n/a	n/a	1
384.76	0.366668576	ANARCHIST	lure	n/a	n/a	n/a	1
385.127	0.73331483	VALENCE	lure	n/a	n/a	n/a	1
385.86	0.566664925	BLOWFISH	lure	n/a	n/a	n/a	1
386.427	0.619348585	RAISER	lure	n/a	n/a	n/a	1
387.046	0.480636261	STANCE	lure	n/a	n/a	n/a	1
387.527	0.699988266	TIGER	lure	n/a	n/a	n/a	1
388.227	0.549989682	COLLECTION	lure	n/a	n/a	n/a	1
388.777	0.716658043	SALARY	lure	n/a	n/a	n/a	1
389.493	0.516657894	DRAMATIST	lure	n/a	n/a	n/a	1
390.01	1.020761749	MULBERRY	fruit	597	2	2	1
391.031	0.52921748	RETRIEVER	lure	n/a	n/a	n/a	1
391.56	0.433326755	SUNBEAM	lure	n/a	n/a	n/a	1
391.993	0.716654767	HICKORY	lure	n/a	n/a	n/a	1
392.71	0.750031108	DENOTATION	lure	n/a	n/a	n/a	1
393.46	0.650006254	TOURNAMENT	lure	n/a	n/a	n/a	1
394.11	0.516606953	TAKEOVER	lure	n/a	n/a	n/a	1
394.627	0.716657622	SINKHOLE	lure	n/a	n/a	n/a	1
395.343	0.733361799	EYEFUL	lure	n/a	n/a	n/a	1
396.077	0.499955512	COLLATERAL	lure	n/a	n/a	n/a	1
396.577	0.599992791	OUTREACH	lure	n/a	n/a	n/a	1
397.177	0.69998326	CASSEROLE	lure	n/a	n/a	n/a	1
397.877	0.633329064	CUISINE	lure	n/a	n/a	n/a	1
398.51	2.016635597	BASIN	long	n/a	n/a	n/a	1
400.526	0.699991751	EQUALITY	lure	n/a	n/a	n/a	1
401.226	0.583326041	MOOSE	lure	n/a	n/a	n/a	1
401.81	0.399991502	MASCARA	lure	n/a	n/a	n/a	1
402.21	0.733326429	ABBOT	lure	n/a	n/a	n/a	1
402.943	0.766653462	TRAVESTY	lure	n/a	n/a	n/a	1
403.71	0.520871758	DOZEN	lure	n/a	n/a	n/a	1
404.231	0.312448288	GUMSHOE	lure	n/a	n/a	n/a	1
404.543	0.400002217	CONCLAVE	lure	n/a	n/a	n/a	1
404.943	0.433321737	FLAGSHIP	lure	n/a	n/a	n/a	1
405.376	0.399993116	REVOLUTION	lure	n/a	n/a	n/a	1
405.776	0.41666001	BIRTHRATE	lure	n/a	n/a	n/a	1
406.193	1.016652307	GRAPE	fruit	574	2	2	1
407.21	0.449991643	PIPETTE	lure	n/a	n/a	n/a	1
407.66	0.467389404	CHECKBOOK	lure	n/a	n/a	n/a	1
408.127	0.515938132	PUNISHMENT	lure	n/a	n/a	n/a	1
408.643	0.599983946	FISHBONE	lure	n/a	n/a	n/a	1
409.243	0.61665859	PROCURATOR	lure	n/a	n/a	n/a	1
409.86	0.433333801	IMPOSTURE	lure	n/a	n/a	n/a	1
410.293	0.600027387	HOOLIGAN	lure	n/a	n/a	n/a	1
410.893	0.699956588	OGRE	lure	n/a	n/a	n/a	1
411.593	0.666649904	UNIFORMITY	lure	n/a	n/a	n/a	1
412.26	0.366663055	DECORATION	lure	n/a	n/a	n/a	1
412.626	0.41665968	NIGHTSHIRT	lure	n/a	n/a	n/a	1
413.043	0.333327159	FEUDALISM	lure	n/a	n/a	n/a	1
413.376	0.64999077	DIAMOND	lure	n/a	n/a	n/a	1
414.026	0.616661965	CORNCOB	lure	n/a	n/a	n/a	1
414.643	2.016635235	RATTLE	long	n/a	n/a	n/a	1
416.66	0.633331336	CRAFTSMAN	lure	n/a	n/a	n/a	1
417.293	0.416657828	CLOCKWORK	lure	n/a	n/a	n/a	1
417.71	0.516654569	MARSUPIAL	lure	n/a	n/a	n/a	1
418.226	0.383336922	INTRUDER	lure	n/a	n/a	n/a	1
418.61	0.399987654	MYTH	lure	n/a	n/a	n/a	1
419.01	0.566665625	DOWNER	lure	n/a	n/a	n/a	1
419.576	0.516656196	ICEBREAKER	lure	n/a	n/a	n/a	1
420.093	0.56666211	RELOCATION	lure	n/a	n/a	n/a	1
420.66	0.416709673	VESTMENT	lure	n/a	n/a	n/a	1
421.076	0.333269904	SEACOAST	lure	n/a	n/a	n/a	1
421.41	0.33333472	GUMDROP	lure	n/a	n/a	n/a	1
421.743	0.466661285	PUTTY	lure	n/a	n/a	n/a	1
422.21	0.749991464	CONDUCTION	lure	n/a	n/a	n/a	1
422.96	0.61665667	CHROME	short	n/a	n/a	n/a	1
423.576	0.549993542	PODIUM	lure	n/a	n/a	n/a	1
424.126	0.533378712	DECENCY	lure	n/a	n/a	n/a	1
424.66	0.683268462	BOAR	lure	n/a	n/a	n/a	1
425.343	0.333323466	TWEED	lure	n/a	n/a	n/a	1
425.676	0.63333208	HATCHERY	lure	n/a	n/a	n/a	1
426.309	0.669233202	SIMULATOR	lure	n/a	n/a	n/a	1
426.979	0.330746456	TRUMPETER	lure	n/a	n/a	n/a	1
427.309	0.366660559	GALAXY	lure	n/a	n/a	n/a	1
427.676	0.53333401	TEARDROP	lure	n/a	n/a	n/a	1
428.209	0.33332437	AIRPLANE	lure	n/a	n/a	n/a	1
428.543	0.366656898	HEARER	lure	n/a	n/a	n/a	1
428.909	0.733327891	JOCKEY	lure	n/a	n/a	n/a	1
429.643	0.333332601	ZODIAC	lure	n/a	n/a	n/a	1
429.976	0.699985235	APPOINTEE	lure	n/a	n/a	n/a	1
430.676	0.66665826	AVIATOR	lure	n/a	n/a	n/a	1
431.343	2.016641095	ENGINE	long	n/a	n/a	n/a	1
433.359	0.73331766	ANTECEDENT	lure	n/a	n/a	n/a	1
434.093	0.399997608	STINKER	lure	n/a	n/a	n/a	1
434.493	0.349995037	LITERACY	lure	n/a	n/a	n/a	1
434.843	0.633364209	LOVEBIRD	lure	n/a	n/a	n/a	1
435.476	0.366624771	REFORMER	lure	n/a	n/a	n/a	1
435.843	0.466656127	SYNC	lure	n/a	n/a	n/a	1
436.309	0.686958986	COASTER	lure	n/a	n/a	n/a	1
436.996	0.663021662	PUPPET	lure	n/a	n/a	n/a	1
437.659	0.500044175	NOMINATION	lure	n/a	n/a	n/a	1
438.159	0.649944747	CRANIUM	lure	n/a	n/a	n/a	1
438.809	0.483317686	SPRITE	lure	n/a	n/a	n/a	1
439.293	0.566665727	REVOLVER	lure	n/a	n/a	n/a	1
439.859	0.616654469	ROPE	short	n/a	n/a	n/a	1
440.476	0.652042196	WOMANHOOD	lure	n/a	n/a	n/a	1
441.128	0.464614594	HARPER	lure	n/a	n/a	n/a	1
441.593	0.749980371	RUBELLA	lure	n/a	n/a	n/a	1
442.343	0.483368865	ADOPTION	lure	n/a	n/a	n/a	1
442.826	0.383294218	SPECULATOR	lure	n/a	n/a	n/a	1
443.209	0.733320915	INTENTION	lure	n/a	n/a	n/a	1
443.943	0.366657926	STANZA	lure	n/a	n/a	n/a	1
444.309	0.766656068	DISCLOSURE	lure	n/a	n/a	n/a	1
445.076	0.699990352	VENTILATOR	lure	n/a	n/a	n/a	1
445.776	0.69999435	DIAPER	lure	n/a	n/a	n/a	1
446.476	0.583320529	HEADPIECE	lure	n/a	n/a	n/a	1
447.059	0.499991746	HAYSTACK	lure	n/a	n/a	n/a	1
447.559	0.600042792	BRETHREN	lure	n/a	n/a	n/a	1
448.159	0.616612268	PYRAMID	short	n/a	n/a	n/a	1
448.776	0.566657706	CODFISH	lure	n/a	n/a	n/a	1
449.342	0.666658322	TONER	lure	n/a	n/a	n/a	1
450.009	0.433363204	PROJECTOR	lure	n/a	n/a	n/a	1
450.442	0.449952065	PROTRACTOR	lure	n/a	n/a	n/a	1
450.892	0.483335427	LAVA	lure	n/a	n/a	n/a	1
451.376	0.566658055	REFLECTION	lure	n/a	n/a	n/a	1
451.942	0.649982348	FEATHERBED	lure	n/a	n/a	n/a	1
452.592	0.500001092	PUFFBALL	lure	n/a	n/a	n/a	1
453.092	0.499986906	HARDWARE	lure	n/a	n/a	n/a	1
453.592	0.349998331	SEASON	lure	n/a	n/a	n/a	1
453.942	0.416658851	AMORALITY	lure	n/a	n/a	n/a	1
454.359	0.566664192	GUARDHOUSE	lure	n/a	n/a	n/a	1
454.926	0.599982786	RETRIAL	lure	n/a	n/a	n/a	1
455.526	0.699991306	DISREPAIR	lure	n/a	n/a	n/a	1
456.226	0.483333436	CONFIDANTE	lure	n/a	n/a	n/a	1
456.709	0.633324292	CANOPY	lure	n/a	n/a	n/a	1
457.342	0.54999125	BEAKER	lure	n/a	n/a	n/a	1
457.892	0.599984904	HOROSCOPE	lure	n/a	n/a	n/a	1
458.492	0.649996011	FIXATION	lure	n/a	n/a	n/a	1
459.142	0.466657014	MICRON	lure	n/a	n/a	n/a	1
459.609	0.316660537	STATEMENT	lure	n/a	n/a	n/a	1
459.926	0.766665381	RETAIL	lure	n/a	n/a	n/a	1
460.692	0.499992064	LECH	lure	n/a	n/a	n/a	1
461.192	0.683318484	HARDSHIP	lure	n/a	n/a	n/a	1
461.876	0.433332553	PROCURER	lure	n/a	n/a	n/a	1
462.309	0.616655287	THUMBNAIL	lure	n/a	n/a	n/a	1
462.926	0.499990782	TREASURY	lure	n/a	n/a	n/a	1
463.426	0.366662933	COMPOSER	lure	n/a	n/a	n/a	1
463.792	0.483324031	CATNIP	lure	n/a	n/a	n/a	1
464.276	n/a	OFFICE	lure	n/a	n/a	n/a	1