onset	duration	stim	cond	RT	resp	cresp	acc
4.045	0.71336831	SPLOTCH	lure	n/a	n/a	n/a	1
4.758	0.583329192	SAWMILL	lure	n/a	n/a	n/a	1
5.341	0.516658908	PLAYBACK	lure	n/a	n/a	n/a	1
5.858	0.666656589	ALLUSION	lure	n/a	n/a	n/a	1
6.525	0.518538906	THROWBACK	lure	n/a	n/a	n/a	1
7.043	0.633505159	RESPONDENT	lure	n/a	n/a	n/a	1
7.677	0.614599847	ATLAS	short	n/a	n/a	n/a	1
8.291	0.599990696	FACSIMILE	lure	n/a	n/a	n/a	1
8.891	0.550045587	EXPLORER	lure	n/a	n/a	n/a	1
9.441	0.533329745	SUBSPACE	lure	n/a	n/a	n/a	1
9.975	0.64992913	HAMBURGER	lure	n/a	n/a	n/a	1
10.625	0.416659585	TENSION	lure	n/a	n/a	n/a	1
11.041	0.633323247	BLOWER	lure	n/a	n/a	n/a	1
11.675	0.633333709	RESENTMENT	lure	n/a	n/a	n/a	1
12.308	0.499992305	DISHCLOTH	lure	n/a	n/a	n/a	1
12.808	0.633369836	HORDE	lure	n/a	n/a	n/a	1
13.441	0.633277423	PARENTHOOD	lure	n/a	n/a	n/a	1
14.075	0.566654541	HEEL	lure	n/a	n/a	n/a	1
14.641	0.516663477	GUSHER	lure	n/a	n/a	n/a	1
15.158	0.3666622	SCOREBOARD	lure	n/a	n/a	n/a	1
15.525	2.016633754	BOAT	long	n/a	n/a	n/a	1
17.541	0.733331191	OUTCAST	lure	n/a	n/a	n/a	1
18.275	0.649986472	IMPEDIMENT	lure	n/a	n/a	n/a	1
18.925	0.416710652	SOUTHPAW	lure	n/a	n/a	n/a	1
19.341	0.316615612	HEARSE	lure	n/a	n/a	n/a	1
19.658	0.516661813	SANCTIMONY	lure	n/a	n/a	n/a	1
20.175	0.519312534	CLASSICISM	lure	n/a	n/a	n/a	1
20.694	0.497332786	CARGO	lure	n/a	n/a	n/a	1
21.191	0.649989146	LITIGATION	lure	n/a	n/a	n/a	1
21.841	0.566705874	BOULDER	lure	n/a	n/a	n/a	1
22.408	0.449947899	TORTOISE	lure	n/a	n/a	n/a	1
22.858	0.749993112	LIMB	lure	n/a	n/a	n/a	1
23.608	0.566931444	LAWN	lure	n/a	n/a	n/a	1
24.175	2.016366891	BASIN	long	n/a	n/a	n/a	1
26.191	0.666650291	DUCKBILL	lure	n/a	n/a	n/a	1
26.858	0.67032361	DAIRYMAN	lure	n/a	n/a	n/a	1
27.528	0.479663361	CARTEL	lure	n/a	n/a	n/a	1
28.008	0.449993596	GIRTH	lure	n/a	n/a	n/a	1
28.458	0.599990438	MICROSCOPE	lure	n/a	n/a	n/a	1
29.058	0.666662789	EARTHLING	lure	n/a	n/a	n/a	1
29.724	0.649993196	TONSIL	lure	n/a	n/a	n/a	1
30.374	0.599990463	INCREMENT	lure	n/a	n/a	n/a	1
30.974	0.566649198	ORIGIN	lure	n/a	n/a	n/a	1
31.541	0.749995679	CELEBRITY	lure	n/a	n/a	n/a	1
32.291	2.016640556	CABLE	long	n/a	n/a	n/a	1
34.308	0.733320409	SPINSTER	lure	n/a	n/a	n/a	1
35.041	0.549989686	EXCISE	lure	n/a	n/a	n/a	1
35.591	0.449995681	CONFESSION	lure	n/a	n/a	n/a	1
36.041	0.533324412	MAGNOLIA	lure	n/a	n/a	n/a	1
36.574	0.449992493	HEMP	lure	n/a	n/a	n/a	1
37.024	0.549993118	FORTE	lure	n/a	n/a	n/a	1
37.574	0.68332527	DUPLEX	lure	n/a	n/a	n/a	1
38.258	0.583321747	FORTNIGHT	lure	n/a	n/a	n/a	1
38.841	0.683327091	CORNEA	lure	n/a	n/a	n/a	1
39.524	0.549987597	BOYHOOD	lure	n/a	n/a	n/a	1
40.074	0.316664949	NOTATION	lure	n/a	n/a	n/a	1
40.391	0.61665499	JAIL	short	n/a	n/a	n/a	1
41.008	0.749991031	LIBERATION	lure	n/a	n/a	n/a	1
41.758	0.383326451	LEGALITY	lure	n/a	n/a	n/a	1
42.141	0.499996205	DOLLAR	lure	n/a	n/a	n/a	1
42.641	0.366661488	INNKEEPER	lure	n/a	n/a	n/a	1
43.008	0.716654405	MARMALADE	lure	n/a	n/a	n/a	1
43.724	0.733328956	STAIRCASE	lure	n/a	n/a	n/a	1
44.458	0.500959518	PROXY	lure	n/a	n/a	n/a	1
44.959	0.549019862	BULKHEAD	lure	n/a	n/a	n/a	1
45.508	0.333333325	TRIBE	lure	n/a	n/a	n/a	1
45.841	0.599988516	HOBBYHORSE	lure	n/a	n/a	n/a	1
46.441	0.483324529	REBEL	lure	n/a	n/a	n/a	1
46.924	0.483330484	FAUCET	lure	n/a	n/a	n/a	1
47.408	0.699990358	HOMOPHONE	lure	n/a	n/a	n/a	1
48.107	0.34999723	COMPLAINT	lure	n/a	n/a	n/a	1
48.457	0.616657891	BRIDGE	short	n/a	n/a	n/a	1
49.074	0.416657149	AVOCATION	lure	n/a	n/a	n/a	1
49.491	0.699987508	SANITY	lure	n/a	n/a	n/a	1
50.191	0.566662015	INSTEP	lure	n/a	n/a	n/a	1
50.757	0.599993945	CORNFIELD	lure	n/a	n/a	n/a	1
51.357	0.599988554	SLAB	lure	n/a	n/a	n/a	1
51.957	0.699990674	GEESE	lure	n/a	n/a	n/a	1
52.657	0.716657551	SHARK	lure	n/a	n/a	n/a	1
53.374	0.749988998	RUNOFF	lure	n/a	n/a	n/a	1
54.124	0.466664967	COB	lure	n/a	n/a	n/a	1
54.591	0.449986108	COCKROACH	lure	n/a	n/a	n/a	1
55.041	0.716658562	INQUIRY	lure	n/a	n/a	n/a	1
55.757	0.633328583	POTBOILER	lure	n/a	n/a	n/a	1
56.391	1.016650132	CANTELOUPE	fruit	735	2	2	1
57.407	0.750042788	COMEBACK	lure	n/a	n/a	n/a	1
58.157	0.566606716	INDUSTRY	lure	n/a	n/a	n/a	1
58.724	0.583320628	GLIMPSE	lure	n/a	n/a	n/a	1
59.307	0.549996271	AVOIDANCE	lure	n/a	n/a	n/a	1
59.857	0.483328603	SCRAMBLER	lure	n/a	n/a	n/a	1
60.341	0.683323461	BACKGROUND	lure	n/a	n/a	n/a	1
61.024	0.449990519	RUM	lure	n/a	n/a	n/a	1
61.474	0.49999064	FATHERLAND	lure	n/a	n/a	n/a	1
61.974	0.533382428	STATEHOOD	lure	n/a	n/a	n/a	1
62.507	0.399938167	WILDCAT	lure	n/a	n/a	n/a	1
62.907	0.3833278	SERGEANT	lure	n/a	n/a	n/a	1
63.291	0.533326804	ENCHANTER	lure	n/a	n/a	n/a	1
63.824	0.716657757	INHABITANT	lure	n/a	n/a	n/a	1
64.541	0.466664562	SALMON	lure	n/a	n/a	n/a	1
65.007	2.049968355	RIDGE	long	n/a	n/a	n/a	1
67.057	0.333328533	HARVESTER	lure	n/a	n/a	n/a	1
67.391	0.766655128	FLUIDITY	lure	n/a	n/a	n/a	1
68.157	0.566661268	SHIRTWAIST	lure	n/a	n/a	n/a	1
68.724	0.483363933	SEABED	lure	n/a	n/a	n/a	1
69.207	0.383292288	INHIBITOR	lure	n/a	n/a	n/a	1
69.591	0.335298958	HORSEMAN	lure	n/a	n/a	n/a	1
69.926	0.39802279	NUN	lure	n/a	n/a	n/a	1
70.324	0.433327805	BOOKER	lure	n/a	n/a	n/a	1
70.757	0.533320495	SUBSIDY	lure	n/a	n/a	n/a	1
71.29	0.466660811	INTERCOM	lure	n/a	n/a	n/a	1
71.757	0.433330699	STALKER	lure	n/a	n/a	n/a	1
72.19	0.349995486	REDUCTION	lure	n/a	n/a	n/a	1
72.54	0.753175429	JASMINE	lure	n/a	n/a	n/a	1
73.294	0.61456738	PANEL	short	n/a	n/a	n/a	1
73.908	0.615563785	POKER	lure	n/a	n/a	n/a	1
74.524	0.449990031	PEW	lure	n/a	n/a	n/a	1
74.974	0.516661516	RETRACTION	lure	n/a	n/a	n/a	1
75.49	0.583325854	CONTINENCE	lure	n/a	n/a	n/a	1
76.074	0.549994281	HORIZON	lure	n/a	n/a	n/a	1
76.624	0.400050628	DECADENCE	lure	n/a	n/a	n/a	1
77.024	0.533266533	WEATHERMAN	lure	n/a	n/a	n/a	1
77.557	0.466660271	SLOGAN	lure	n/a	n/a	n/a	1
78.024	0.449992793	GRATUITY	lure	n/a	n/a	n/a	1
78.474	0.416663355	IMPOSTOR	lure	n/a	n/a	n/a	1
78.89	0.749984828	RELEVANCY	lure	n/a	n/a	n/a	1
79.64	0.566662363	DYSLEXIA	lure	n/a	n/a	n/a	1
80.207	0.416658951	MILKMAID	lure	n/a	n/a	n/a	1
80.624	0.666655809	PIZZERIA	lure	n/a	n/a	n/a	1
81.29	0.516663129	SPECTRA	lure	n/a	n/a	n/a	1
81.807	0.64999088	CHROME	short	n/a	n/a	n/a	1
82.457	0.583322721	ETERNITY	lure	n/a	n/a	n/a	1
83.04	0.599991552	PHONOLOGY	lure	n/a	n/a	n/a	1
83.64	0.468023732	CITADEL	lure	n/a	n/a	n/a	1
84.108	0.315297534	OLIGARCHY	lure	n/a	n/a	n/a	1
84.424	0.766660281	UPBRINGING	lure	n/a	n/a	n/a	1
85.19	0.599990017	GENTILE	lure	n/a	n/a	n/a	1
85.79	0.583326365	EXPRESSWAY	lure	n/a	n/a	n/a	1
86.374	0.449991826	PEDICURE	lure	n/a	n/a	n/a	1
86.824	0.649995523	CORVETTE	lure	n/a	n/a	n/a	1
87.474	0.383323906	COMPONENT	lure	n/a	n/a	n/a	1
87.857	0.633328025	BUSTER	lure	n/a	n/a	n/a	1
88.49	0.549990572	ECOSYSTEM	lure	n/a	n/a	n/a	1
89.04	0.499990898	COURTIER	lure	n/a	n/a	n/a	1
89.54	0.666654899	LAUGHTER	lure	n/a	n/a	n/a	1
90.207	0.616662213	PATCH	short	n/a	n/a	n/a	1
90.824	0.350032269	FIREBIRD	lure	n/a	n/a	n/a	1
91.174	0.349994497	PRAGMATIST	lure	n/a	n/a	n/a	1
91.524	0.733288124	WARFARE	lure	n/a	n/a	n/a	1
92.257	0.366661613	SCAPULA	lure	n/a	n/a	n/a	1
92.624	0.483373458	HOSPICE	lure	n/a	n/a	n/a	1
93.107	0.366648392	MOUSETRAP	lure	n/a	n/a	n/a	1
93.474	0.599957774	OWNER	lure	n/a	n/a	n/a	1
94.074	0.600029566	SUFFIX	lure	n/a	n/a	n/a	1
94.674	0.549951531	LIMBO	lure	n/a	n/a	n/a	1
95.224	0.433368703	BETRAYAL	lure	n/a	n/a	n/a	1
95.657	0.633284917	STEAK	lure	n/a	n/a	n/a	1
96.29	0.716659179	FORMAT	lure	n/a	n/a	n/a	1
97.007	0.366656622	WOLFHOUND	lure	n/a	n/a	n/a	1
97.373	0.450036635	NAPE	lure	n/a	n/a	n/a	1
97.824	0.599996057	COOP	lure	n/a	n/a	n/a	1
98.424	2.01659111	SACK	long	n/a	n/a	n/a	1
100.44	0.383333535	TIGHTROPE	lure	n/a	n/a	n/a	1
100.823	0.383328775	SERVITUDE	lure	n/a	n/a	n/a	1
101.207	0.349996135	CAROUSEL	lure	n/a	n/a	n/a	1
101.557	0.533329347	FLASHLIGHT	lure	n/a	n/a	n/a	1
102.09	0.450023357	PLAYPEN	lure	n/a	n/a	n/a	1
102.54	0.449957649	MONUMENT	lure	n/a	n/a	n/a	1
102.99	0.48333106	SEMINAR	lure	n/a	n/a	n/a	1
103.473	0.716648395	ICECAP	lure	n/a	n/a	n/a	1
104.19	0.433377166	RECRUITER	lure	n/a	n/a	n/a	1
104.623	0.499942819	RIFLEMEN	lure	n/a	n/a	n/a	1
105.123	0.499999549	TRILOGY	lure	n/a	n/a	n/a	1
105.623	0.383321684	ICEPICK	lure	n/a	n/a	n/a	1
106.007	0.469060529	SACHET	lure	n/a	n/a	n/a	1
106.476	0.430925853	BAGPIPE	lure	n/a	n/a	n/a	1
106.907	0.616662708	ROPE	short	n/a	n/a	n/a	1
107.523	0.733327079	ALMANAC	lure	n/a	n/a	n/a	1
108.257	0.433357291	COUGAR	lure	n/a	n/a	n/a	1
108.69	0.383291281	RIBBING	lure	n/a	n/a	n/a	1
109.073	0.683330484	CELLIST	lure	n/a	n/a	n/a	1
109.757	0.599990738	SCORECARD	lure	n/a	n/a	n/a	1
110.357	0.349994812	PRANK	lure	n/a	n/a	n/a	1
110.707	0.349988709	MAINSTAY	lure	n/a	n/a	n/a	1
111.057	0.616704951	LARYNX	lure	n/a	n/a	n/a	1
111.673	0.633282214	BEEFEATER	lure	n/a	n/a	n/a	1
112.307	0.749985127	CRUCIFIX	lure	n/a	n/a	n/a	1
113.057	0.650745997	CAPITAL	lure	n/a	n/a	n/a	1
113.707	0.449282191	SECESSION	lure	n/a	n/a	n/a	1
114.157	0.583324239	CONQUEROR	lure	n/a	n/a	n/a	1
114.74	0.483284731	NARRATION	lure	n/a	n/a	n/a	1
115.223	2.01664451	ENGINE	long	n/a	n/a	n/a	1
117.24	0.499988836	AFFAIR	lure	n/a	n/a	n/a	1
117.74	0.483377474	CHINAWARE	lure	n/a	n/a	n/a	1
118.223	0.583272091	MEDALLION	lure	n/a	n/a	n/a	1
118.807	0.699990191	SHRUB	lure	n/a	n/a	n/a	1
119.506	0.350000788	NATURALIST	lure	n/a	n/a	n/a	1
119.856	0.383322645	TON	lure	n/a	n/a	n/a	1
120.24	0.7666596	ROADWAY	lure	n/a	n/a	n/a	1
121.006	0.549994205	INFANTRY	lure	n/a	n/a	n/a	1
121.556	0.633320993	DIPPER	lure	n/a	n/a	n/a	1
122.19	0.449988285	BRICKYARD	lure	n/a	n/a	n/a	1
122.64	0.736121866	SHOEMAKER	lure	n/a	n/a	n/a	1
123.376	0.580532719	HAIRDO	lure	n/a	n/a	n/a	1
123.956	0.616654404	PYRAMID	short	n/a	n/a	n/a	1
124.573	0.633324936	BLOWBACK	lure	n/a	n/a	n/a	1
125.206	0.366663968	HOMEMAKER	lure	n/a	n/a	n/a	1
125.573	0.599989984	MODERNITY	lure	n/a	n/a	n/a	1
126.173	0.349992493	JUKEBOX	lure	n/a	n/a	n/a	1
126.523	0.649997072	APPAREL	lure	n/a	n/a	n/a	1
127.173	0.649988151	MORALE	lure	n/a	n/a	n/a	1
127.823	0.43333209	SCRIBE	lure	n/a	n/a	n/a	1
128.256	0.533317248	MANIA	lure	n/a	n/a	n/a	1
128.79	0.349994466	SEGA	lure	n/a	n/a	n/a	1
129.14	0.466664077	RECORDER	lure	n/a	n/a	n/a	1
129.606	0.649991207	STRINGENCY	lure	n/a	n/a	n/a	1
130.256	0.499989862	FURNACE	lure	n/a	n/a	n/a	1
130.756	0.399996221	HORNPIPE	lure	n/a	n/a	n/a	1
131.156	0.36666473	PLEA	lure	n/a	n/a	n/a	1
131.523	0.699993721	INGESTION	lure	n/a	n/a	n/a	1
132.223	0.783321557	SONAR	lure	n/a	n/a	n/a	1
133.006	1.021193554	PEAR	fruit	671	2	2	1
134.028	0.729569075	DEFICIT	lure	n/a	n/a	n/a	1
134.757	0.73252887	JAZZ	lure	n/a	n/a	n/a	1
135.49	0.433326143	LUSTRE	lure	n/a	n/a	n/a	1
135.923	0.549993527	OWNSELF	lure	n/a	n/a	n/a	1
136.473	0.666658812	MARIGOLD	lure	n/a	n/a	n/a	1
137.14	0.499992461	CACHET	lure	n/a	n/a	n/a	1
137.64	0.533323852	OUTPOURING	lure	n/a	n/a	n/a	1
138.173	0.616658166	DEBASEMENT	lure	n/a	n/a	n/a	1
138.79	0.450002178	CONTRACT	lure	n/a	n/a	n/a	1
139.24	0.54998643	LOCKOUT	lure	n/a	n/a	n/a	1
139.79	0.566664715	FEET	lure	n/a	n/a	n/a	1
140.356	0.499993994	DOWNPOUR	lure	n/a	n/a	n/a	1
140.856	0.59999131	PRETEST	lure	n/a	n/a	n/a	1
141.456	1.016651292	RASPBERRY	fruit	622	2	2	1
142.473	0.71670115	INTEGRITY	lure	n/a	n/a	n/a	1
143.19	0.616609542	BADMINTON	lure	n/a	n/a	n/a	1
143.806	0.600029137	FARMSTEAD	lure	n/a	n/a	n/a	1
144.406	0.416626449	PROFANITY	lure	n/a	n/a	n/a	1
144.823	0.566704694	ARMLOAD	lure	n/a	n/a	n/a	1
145.39	0.433275759	COHESION	lure	n/a	n/a	n/a	1
145.823	0.733324908	HANDRAIL	lure	n/a	n/a	n/a	1
146.556	0.416697459	BRAWN	lure	n/a	n/a	n/a	1
146.973	0.516628248	MOISTURE	lure	n/a	n/a	n/a	1
147.489	0.5333173	SPUD	lure	n/a	n/a	n/a	1
148.023	0.549998407	BRICKLAYER	lure	n/a	n/a	n/a	1
148.573	0.416660562	PERTINENCE	lure	n/a	n/a	n/a	1
148.989	0.533322162	SELLOUT	lure	n/a	n/a	n/a	1
149.523	1.01903432	MELON	fruit	619	2	2	1
150.542	0.447676014	DOORKNOB	lure	n/a	n/a	n/a	1
150.989	0.387665928	WEALTH	lure	n/a	n/a	n/a	1
151.377	0.445594931	PORTFOLIO	lure	n/a	n/a	n/a	1
151.823	0.516654503	SYMPATHY	lure	n/a	n/a	n/a	1
152.339	0.316664384	JURIST	lure	n/a	n/a	n/a	1
152.656	0.349999825	PARKHOUSE	lure	n/a	n/a	n/a	1
153.006	0.466653877	HOUSE	lure	n/a	n/a	n/a	1
153.473	0.433327756	TIMIDITY	lure	n/a	n/a	n/a	1
153.906	0.36666051	BORDERLAND	lure	n/a	n/a	n/a	1
154.273	0.649998105	SUSPENDER	lure	n/a	n/a	n/a	1
154.923	0.383329061	OTTOMAN	lure	n/a	n/a	n/a	1
155.306	0.73331695	EGGPLANT	lure	n/a	n/a	n/a	1
156.039	0.366660944	CARVER	lure	n/a	n/a	n/a	1
156.406	0.716657461	COMMUTE	lure	n/a	n/a	n/a	1
157.123	0.749988939	FOOD	lure	n/a	n/a	n/a	1
157.873	2.016644065	LEAD	long	n/a	n/a	n/a	1
159.889	0.383328819	MEMOIR	lure	n/a	n/a	n/a	1
160.273	0.49999122	VOLTAGE	lure	n/a	n/a	n/a	1
160.773	0.533325971	PROSPECT	lure	n/a	n/a	n/a	1
161.306	0.749983039	PREDICTION	lure	n/a	n/a	n/a	1
162.056	0.583328684	DECOY	lure	n/a	n/a	n/a	1
162.639	0.716655923	HANDLER	lure	n/a	n/a	n/a	1
163.356	0.333329798	BULLRING	lure	n/a	n/a	n/a	1
163.689	0.752379116	SUBVERSION	lure	n/a	n/a	n/a	1
164.442	0.647603464	AUDITION	lure	n/a	n/a	n/a	1
165.089	0.566654891	BEACON	lure	n/a	n/a	n/a	1
165.656	0.466663251	STOCKMAN	lure	n/a	n/a	n/a	1
166.123	0.616654384	SAND	short	n/a	n/a	n/a	1
166.739	0.433329788	PANCAKE	lure	n/a	n/a	n/a	1
167.172	0.400030517	URETHRA	lure	n/a	n/a	n/a	1
167.573	0.416682437	ADVERTISER	lure	n/a	n/a	n/a	1
167.989	0.716635852	CAMPFIRE	lure	n/a	n/a	n/a	1
168.706	0.333291813	FIANCEE	lure	n/a	n/a	n/a	1
169.039	0.500052187	BULLDOZER	lure	n/a	n/a	n/a	1
169.539	0.416601208	GOLDSMITH	lure	n/a	n/a	n/a	1
169.956	0.466717942	TERRORISM	lure	n/a	n/a	n/a	1
170.423	0.699928639	EGOTISM	lure	n/a	n/a	n/a	1
171.122	0.699993603	VINEGAR	lure	n/a	n/a	n/a	1
171.822	0.699989723	FOLKLORE	lure	n/a	n/a	n/a	1
172.522	0.616658112	TEACAKE	lure	n/a	n/a	n/a	1
173.139	0.466722004	KNOCKER	lure	n/a	n/a	n/a	1
173.606	0.366640399	STRETCHER	lure	n/a	n/a	n/a	1
173.972	0.349956264	SPASM	lure	n/a	n/a	n/a	1
174.322	2.01663908	CHISEL	long	n/a	n/a	n/a	1
176.339	0.349989229	KINFOLK	lure	n/a	n/a	n/a	1
176.689	0.350001733	NUTSHELL	lure	n/a	n/a	n/a	1
177.039	0.766654077	KEG	lure	n/a	n/a	n/a	1
177.806	0.483325538	FUZZ	lure	n/a	n/a	n/a	1
178.289	0.399998362	TWINE	lure	n/a	n/a	n/a	1
178.689	0.316658989	POWERHOUSE	lure	n/a	n/a	n/a	1
179.006	0.416657391	CRUCIBLE	lure	n/a	n/a	n/a	1
179.422	0.366665397	STUD	lure	n/a	n/a	n/a	1
179.789	0.749985602	ASPIRATION	lure	n/a	n/a	n/a	1
180.539	0.400000182	ANNOYANCE	lure	n/a	n/a	n/a	1
180.939	0.399991189	SPOILSPORT	lure	n/a	n/a	n/a	1
181.339	0.749989427	INDULGENCE	lure	n/a	n/a	n/a	1
182.089	0.616657214	IMPULSE	lure	n/a	n/a	n/a	1
182.706	0.616663389	COMPASS	short	n/a	n/a	n/a	1
183.322	0.518240109	DICHOTOMY	lure	n/a	n/a	n/a	1
183.841	0.68357209	GLEN	lure	n/a	n/a	n/a	1
184.524	0.583525917	SPOUSE	lure	n/a	n/a	n/a	1
185.108	0.414625945	PERMEATION	lure	n/a	n/a	n/a	1
185.522	0.683322432	IDEOLOGIST	lure	n/a	n/a	n/a	1
186.206	0.649992197	HOG	lure	n/a	n/a	n/a	1
186.856	0.416662953	NERVE	lure	n/a	n/a	n/a	1
187.272	0.583322332	TIPOFF	lure	n/a	n/a	n/a	1
187.856	0.749992081	FORMULA	lure	n/a	n/a	n/a	1
188.606	0.516657792	HURLER	lure	n/a	n/a	n/a	1
189.122	0.416660162	PERIWINKLE	lure	n/a	n/a	n/a	1
189.539	0.666660794	CHIEFTAIN	lure	n/a	n/a	n/a	1
190.206	0.616653576	PITFALL	lure	n/a	n/a	n/a	1
190.822	1.016732698	PINEAPPLE	fruit	736	2	2	1
191.839	0.683243068	HEXAGRAM	lure	n/a	n/a	n/a	1
192.522	0.466659728	WINDSTORM	lure	n/a	n/a	n/a	1
192.989	0.399996593	GAUNTLET	lure	n/a	n/a	n/a	1
193.389	0.483326236	EVERYBODY	lure	n/a	n/a	n/a	1
193.872	0.516663528	SANDPIT	lure	n/a	n/a	n/a	1
194.389	0.599990102	DOCKYARD	lure	n/a	n/a	n/a	1
194.989	0.53336376	CONFIDANT	lure	n/a	n/a	n/a	1
195.522	0.566618501	SESAME	lure	n/a	n/a	n/a	1
196.089	0.566719684	BIRDSEED	lure	n/a	n/a	n/a	1
196.655	0.366602247	PEST	lure	n/a	n/a	n/a	1
197.022	0.466658315	CERTAINTY	lure	n/a	n/a	n/a	1
197.489	0.683324892	PROTECTION	lure	n/a	n/a	n/a	1
198.172	0.633321403	MAIDENHOOD	lure	n/a	n/a	n/a	1
198.805	0.566659144	TOOTHPASTE	lure	n/a	n/a	n/a	1
199.372	2.016639942	RATTLE	long	n/a	n/a	n/a	1
201.389	0.450048612	ABSENCE	lure	n/a	n/a	n/a	1
201.839	0.349942803	EVENING	lure	n/a	n/a	n/a	1
202.189	0.750043933	GASLIGHT	lure	n/a	n/a	n/a	1
202.939	0.649936968	BAMBINO	lure	n/a	n/a	n/a	1
203.589	0.466711863	OKRA	lure	n/a	n/a	n/a	1
204.055	0.433328244	AISLE	lure	n/a	n/a	n/a	1
204.489	0.666602073	SATIRIST	lure	n/a	n/a	n/a	1
205.155	0.349995416	BACKBOARD	lure	n/a	n/a	n/a	1
205.505	0.466712994	BREATH	lure	n/a	n/a	n/a	1
205.972	0.616604759	CHILI	lure	n/a	n/a	n/a	1
206.589	0.316663075	PENDANT	lure	n/a	n/a	n/a	1
206.905	0.716655524	PAPERBACK	lure	n/a	n/a	n/a	1
207.622	2.016639935	PARADE	long	n/a	n/a	n/a	1
209.639	0.469814313	FOOTSIE	lure	n/a	n/a	n/a	1
210.108	0.563503087	WRAPPER	lure	n/a	n/a	n/a	1
210.672	0.749988285	MYSTIQUE	lure	n/a	n/a	n/a	1
211.422	0.483326382	SEAPLANE	lure	n/a	n/a	n/a	1
211.905	0.366666027	RIGGER	lure	n/a	n/a	n/a	1
212.272	0.583325753	TROUPE	lure	n/a	n/a	n/a	1
212.855	0.619683999	HEARTTHROB	lure	n/a	n/a	n/a	1
213.475	0.584565032	BELLHOP	lure	n/a	n/a	n/a	1
214.059	0.714571829	INGENUITY	lure	n/a	n/a	n/a	1
214.774	0.464477964	PURIST	lure	n/a	n/a	n/a	1
215.238	0.749990697	TANNER	lure	n/a	n/a	n/a	1
215.988	1.016652812	PEACH	fruit	n/a	n/a	2	0
217.005	0.749987508	CLIPBOARD	lure	n/a	n/a	n/a	1
217.755	0.504787968	PENSION	lure	n/a	n/a	n/a	1
218.26	0.395199287	SPEAKEASY	lure	n/a	n/a	n/a	1
218.655	0.399996859	VULTURE	lure	n/a	n/a	n/a	1
219.055	0.399992931	MANUSCRIPT	lure	n/a	n/a	n/a	1
219.455	0.416659715	MEDAL	lure	n/a	n/a	n/a	1
219.872	0.599991198	UNDERSIDE	lure	n/a	n/a	n/a	1
220.472	0.666658276	WAXWORK	lure	n/a	n/a	n/a	1
221.138	0.733324335	BEAST	lure	n/a	n/a	n/a	1
221.872	0.469865717	CHOW	lure	n/a	n/a	n/a	1
222.342	0.746783557	DINGO	lure	n/a	n/a	n/a	1
223.088	0.433323486	MINUTEMAN	lure	n/a	n/a	n/a	1
223.522	0.533326135	SUBSYSTEM	lure	n/a	n/a	n/a	1
224.055	0.566658194	COYOTE	lure	n/a	n/a	n/a	1
224.622	0.349994947	TREACHERY	lure	n/a	n/a	n/a	1
224.972	0.666657799	MEDICINE	lure	n/a	n/a	n/a	1
225.638	0.449999674	MOUSE	lure	n/a	n/a	n/a	1
226.088	0.716650613	ULCERATION	lure	n/a	n/a	n/a	1
226.805	n/a	PARTAKER	lure	n/a	n/a	n/a	1
238.024	0.413895655	PLUNGER	lure	n/a	n/a	n/a	1
238.438	0.349998335	MAYONNAISE	lure	n/a	n/a	n/a	1
238.788	0.616658685	SUSHI	lure	n/a	n/a	n/a	1
239.405	0.499986819	ATTENDANT	lure	n/a	n/a	n/a	1
239.905	0.766661418	LAMP	lure	n/a	n/a	n/a	1
240.671	0.316707639	ISLAND	lure	n/a	n/a	n/a	1
240.988	0.68327989	HYENA	lure	n/a	n/a	n/a	1
241.671	0.599985168	HAVEN	lure	n/a	n/a	n/a	1
242.271	1.016658304	WATERMELON	fruit	583	2	2	1
243.288	0.38338548	DECADE	lure	n/a	n/a	n/a	1
243.671	0.499935041	ROOKIE	lure	n/a	n/a	n/a	1
244.171	0.383327711	RUNNER	lure	n/a	n/a	n/a	1
244.555	0.599990909	BLADE	lure	n/a	n/a	n/a	1
245.155	0.633325685	WIZARDRY	lure	n/a	n/a	n/a	1
245.788	0.433326276	MARSHALL	lure	n/a	n/a	n/a	1
246.221	0.566659826	ILLEGALITY	lure	n/a	n/a	n/a	1
246.788	0.599986166	MANNEQUIN	lure	n/a	n/a	n/a	1
247.388	0.699995116	ORGANIST	lure	n/a	n/a	n/a	1
248.088	0.499987664	BASSOON	lure	n/a	n/a	n/a	1
248.588	0.633328977	MOTHBALL	lure	n/a	n/a	n/a	1
249.221	0.333329854	WHOOPEE	lure	n/a	n/a	n/a	1
249.555	0.649990707	LENDER	lure	n/a	n/a	n/a	1
250.205	0.549986534	DEPORTMENT	lure	n/a	n/a	n/a	1
250.755	0.616663633	PYRAMID	short	n/a	n/a	n/a	1
251.371	0.449990362	MAGNESIA	lure	n/a	n/a	n/a	1
251.821	0.449994294	DIVIDER	lure	n/a	n/a	n/a	1
252.271	0.449992983	LINEUP	lure	n/a	n/a	n/a	1
252.721	0.449995819	DUCKLING	lure	n/a	n/a	n/a	1
253.171	0.61665842	MAILBOX	lure	n/a	n/a	n/a	1
253.788	0.500039017	PLAYER	lure	n/a	n/a	n/a	1
254.288	0.716607851	RELEVANCE	lure	n/a	n/a	n/a	1
255.005	0.749990188	ATHLETE	lure	n/a	n/a	n/a	1
255.755	0.649993406	PEDDLER	lure	n/a	n/a	n/a	1
256.405	0.333326027	ARTISTRY	lure	n/a	n/a	n/a	1
256.738	0.449997534	ATHEISM	lure	n/a	n/a	n/a	1
257.188	0.449989658	NEIGHBOR	lure	n/a	n/a	n/a	1
257.638	0.567532031	VOODOO	lure	n/a	n/a	n/a	1
258.205	0.482455738	DECANTER	lure	n/a	n/a	n/a	1
258.688	2.016636251	RIDGE	long	n/a	n/a	n/a	1
260.705	0.71665746	COMPANION	lure	n/a	n/a	n/a	1
261.421	0.633326186	EDUCATION	lure	n/a	n/a	n/a	1
262.055	0.566659964	VICTOR	lure	n/a	n/a	n/a	1
262.621	0.416660272	ICECUBE	lure	n/a	n/a	n/a	1
263.038	0.733318268	SETTER	lure	n/a	n/a	n/a	1
263.771	0.603899985	PLAYBILL	lure	n/a	n/a	n/a	1
264.375	0.679418403	SUPPER	lure	n/a	n/a	n/a	1
265.054	0.716653689	SCALLION	lure	n/a	n/a	n/a	1
265.771	0.716658519	MORNING	lure	n/a	n/a	n/a	1
266.488	0.449997576	WATCHMAKER	lure	n/a	n/a	n/a	1
266.938	0.649988419	ROPE	short	n/a	n/a	n/a	1
267.588	0.766657081	PROCESSOR	lure	n/a	n/a	n/a	1
268.354	0.43332705	AFTERSHAVE	lure	n/a	n/a	n/a	1
268.788	0.483326382	DISK	lure	n/a	n/a	n/a	1
269.271	0.54999274	QUEEN	lure	n/a	n/a	n/a	1
269.821	0.666655178	TAKEOFF	lure	n/a	n/a	n/a	1
270.488	0.36666344	HERB	lure	n/a	n/a	n/a	1
270.854	0.537910598	SALINITY	lure	n/a	n/a	n/a	1
271.392	0.728739712	MILITIA	lure	n/a	n/a	n/a	1
272.121	0.383327084	REUNION	lure	n/a	n/a	n/a	1
272.504	0.399993139	NOONTIME	lure	n/a	n/a	n/a	1
272.904	0.516655517	PASSAGE	lure	n/a	n/a	n/a	1
273.421	0.466660874	SUBPLOT	lure	n/a	n/a	n/a	1
273.888	0.41665987	MIDAIR	lure	n/a	n/a	n/a	1
274.304	0.416663587	FRAGILITY	lure	n/a	n/a	n/a	1
274.721	0.651210916	REFERENCE	lure	n/a	n/a	n/a	1
275.372	0.615789246	BRIDGE	short	n/a	n/a	n/a	1
275.988	0.633011542	HEADLAMP	lure	n/a	n/a	n/a	1
276.621	0.633286125	EMINENCE	lure	n/a	n/a	n/a	1
277.254	0.683324491	PROPULSION	lure	n/a	n/a	n/a	1
277.938	0.449994991	SURVEY	lure	n/a	n/a	n/a	1
278.388	0.720720972	FATSO	lure	n/a	n/a	n/a	1
279.108	0.479262225	CEREBRUM	lure	n/a	n/a	n/a	1
279.588	0.649987264	BLAZER	lure	n/a	n/a	n/a	1
280.238	0.433383564	SHORTY	lure	n/a	n/a	n/a	1
280.671	0.549940803	JOIST	lure	n/a	n/a	n/a	1
281.221	0.483321924	AIRBASE	lure	n/a	n/a	n/a	1
281.704	0.699989969	PROBATE	lure	n/a	n/a	n/a	1
282.404	0.633331084	PLASMA	lure	n/a	n/a	n/a	1
283.038	0.566660736	MUMMY	lure	n/a	n/a	n/a	1
283.604	2.049967628	PARADE	long	n/a	n/a	n/a	1
285.654	0.683322345	SPECTATOR	lure	n/a	n/a	n/a	1
286.337	0.449994845	QUESTIONER	lure	n/a	n/a	n/a	1
286.787	0.433326449	PESTICIDE	lure	n/a	n/a	n/a	1
287.221	0.533326637	PROTEGEE	lure	n/a	n/a	n/a	1
287.754	0.49999117	SANDBAR	lure	n/a	n/a	n/a	1
288.254	0.649988016	ITINERARY	lure	n/a	n/a	n/a	1
288.904	0.416667367	PILGRIMAGE	lure	n/a	n/a	n/a	1
289.321	0.699985695	BREAKOUT	lure	n/a	n/a	n/a	1
290.021	0.349998359	FROCK	lure	n/a	n/a	n/a	1
290.371	0.549991692	CIRCUIT	lure	n/a	n/a	n/a	1
290.921	0.48332495	LOGICIAN	lure	n/a	n/a	n/a	1
291.404	0.633378744	RADICALISM	lure	n/a	n/a	n/a	1
292.037	1.016679065	PEACH	fruit	600	2	2	1
293.054	0.61657473	TENET	lure	n/a	n/a	n/a	1
293.671	0.433326242	THROAT	lure	n/a	n/a	n/a	1
294.104	0.350010657	DETERGENT	lure	n/a	n/a	n/a	1
294.454	0.533315783	GAGGLE	lure	n/a	n/a	n/a	1
294.987	0.716660064	BEARER	lure	n/a	n/a	n/a	1
295.704	0.366658491	SUET	lure	n/a	n/a	n/a	1
296.071	0.466656522	CLAVICLE	lure	n/a	n/a	n/a	1
296.537	0.566660996	EMPLOYEE	lure	n/a	n/a	n/a	1
297.104	0.733327401	WOODSMAN	lure	n/a	n/a	n/a	1
297.837	0.516657277	REDHEAD	lure	n/a	n/a	n/a	1
298.354	0.399991089	THIMBLE	lure	n/a	n/a	n/a	1
298.754	0.736964275	COLLECTOR	lure	n/a	n/a	n/a	1
299.491	0.516563715	HIPSTER	lure	n/a	n/a	n/a	1
300.008	2.014594776	LEAD	long	n/a	n/a	n/a	1
302.022	0.565162015	PAYROLL	lure	n/a	n/a	n/a	1
302.587	0.402194973	PREVALENCE	lure	n/a	n/a	n/a	1
302.989	0.514454968	TOBACCO	lure	n/a	n/a	n/a	1
303.504	0.483324909	ABBEY	lure	n/a	n/a	n/a	1
303.987	0.63332561	SEABOARD	lure	n/a	n/a	n/a	1
304.621	0.333331807	QUOTA	lure	n/a	n/a	n/a	1
304.954	0.633324597	NATURISM	lure	n/a	n/a	n/a	1
305.587	0.416656532	UPSURGE	lure	n/a	n/a	n/a	1
306.004	0.73332476	HYDROPLANE	lure	n/a	n/a	n/a	1
306.737	0.366658225	HALLWAY	lure	n/a	n/a	n/a	1
307.104	0.616660066	EXTRUSION	lure	n/a	n/a	n/a	1
307.721	0.483330097	DILL	lure	n/a	n/a	n/a	1
308.204	1.050043119	APPLE	fruit	682	2	2	1
309.254	0.416603034	BOOKCASE	lure	n/a	n/a	n/a	1
309.671	0.466654534	CORTEX	lure	n/a	n/a	n/a	1
310.137	0.433332498	CURLER	lure	n/a	n/a	n/a	1
310.57	0.616654688	TWEEZER	lure	n/a	n/a	n/a	1
311.187	0.549993215	RECURRENCE	lure	n/a	n/a	n/a	1
311.737	0.74999147	HISTOLOGY	lure	n/a	n/a	n/a	1
312.487	0.599991192	En/aOLLMENT	lure	n/a	n/a	n/a	1
313.087	0.383328778	KEEPSAKE	lure	n/a	n/a	n/a	1
313.47	0.31665738	FRIGHT	lure	n/a	n/a	n/a	1
313.787	0.566659294	IMPOSITION	lure	n/a	n/a	n/a	1
314.354	0.666661654	TURPENTINE	lure	n/a	n/a	n/a	1
315.02	0.483326275	VICEROY	lure	n/a	n/a	n/a	1
315.504	0.533326524	FOOTSTOOL	lure	n/a	n/a	n/a	1
316.037	0.550043842	NUTCRACKER	lure	n/a	n/a	n/a	1
316.587	2.01658716	ENGINE	long	n/a	n/a	n/a	1
318.604	0.649987023	LLAMA	lure	n/a	n/a	n/a	1
319.254	0.383332112	DELETION	lure	n/a	n/a	n/a	1
319.637	0.699987004	PLUMAGE	lure	n/a	n/a	n/a	1
320.337	0.73332555	MATRIARCHY	lure	n/a	n/a	n/a	1
321.07	0.599990859	PERIMETER	lure	n/a	n/a	n/a	1
321.67	0.683322638	BONDSMAN	lure	n/a	n/a	n/a	1
322.354	0.433330442	SALON	lure	n/a	n/a	n/a	1
322.787	0.683322653	GARNET	lure	n/a	n/a	n/a	1
323.47	0.616656793	EXPERTISE	lure	n/a	n/a	n/a	1
324.087	0.416662492	ALLIANCE	lure	n/a	n/a	n/a	1
324.504	0.366655656	FABLE	lure	n/a	n/a	n/a	1
324.87	1.016658762	CHERRY	fruit	784	2	2	1
325.887	0.616657083	EXPOSITION	lure	n/a	n/a	n/a	1
326.504	0.516710325	COGNITION	lure	n/a	n/a	n/a	1
327.02	0.683291686	WHOPPER	lure	n/a	n/a	n/a	1
327.704	0.699971954	QUARRYMEN	lure	n/a	n/a	n/a	1
328.404	0.316656846	FRAILTY	lure	n/a	n/a	n/a	1
328.72	0.399998529	SETTLEMENT	lure	n/a	n/a	n/a	1
329.12	0.583319661	SONG	lure	n/a	n/a	n/a	1
329.704	0.399999575	ARTIST	lure	n/a	n/a	n/a	1
330.104	0.316661326	REFEREE	lure	n/a	n/a	n/a	1
330.42	0.383382086	MANGER	lure	n/a	n/a	n/a	1
330.804	0.54993495	PHONECALL	lure	n/a	n/a	n/a	1
331.354	0.59999511	EXEMPTION	lure	n/a	n/a	n/a	1
331.954	0.466705152	LIBRARY	lure	n/a	n/a	n/a	1
332.42	0.383282852	COLLATION	lure	n/a	n/a	n/a	1
332.804	0.349997572	DOOR	lure	n/a	n/a	n/a	1
333.154	2.016634128	SACK	long	n/a	n/a	n/a	1
335.17	0.38332887	FESTIVITY	lure	n/a	n/a	n/a	1
335.553	0.54999308	STARTER	lure	n/a	n/a	n/a	1
336.103	0.366660342	GESTALT	lure	n/a	n/a	n/a	1
336.47	0.616660349	KING	lure	n/a	n/a	n/a	1
337.087	0.549991298	GAG	lure	n/a	n/a	n/a	1
337.637	0.416661091	LESSON	lure	n/a	n/a	n/a	1
338.053	0.799989069	PATERNITY	lure	n/a	n/a	n/a	1
338.853	0.349996188	ALLEGATION	lure	n/a	n/a	n/a	1
339.203	0.599993377	COOKBOOK	lure	n/a	n/a	n/a	1
339.803	0.699986749	DAY	lure	n/a	n/a	n/a	1
340.503	0.349991961	LANDLORD	lure	n/a	n/a	n/a	1
340.853	0.600000962	OFFENCE	lure	n/a	n/a	n/a	1
341.453	0.616654543	PANEL	short	n/a	n/a	n/a	1
342.07	0.34999161	INDICATOR	lure	n/a	n/a	n/a	1
342.42	0.383328897	BULLFROG	lure	n/a	n/a	n/a	1
342.803	0.316662373	TARIFF	lure	n/a	n/a	n/a	1
343.12	0.566658444	GRAVEL	lure	n/a	n/a	n/a	1
343.687	0.399991621	KIND	lure	n/a	n/a	n/a	1
344.087	0.449995012	SLAPSTICK	lure	n/a	n/a	n/a	1
344.537	0.466660815	HEARTACHE	lure	n/a	n/a	n/a	1
345.003	0.716654959	PIGEONHOLE	lure	n/a	n/a	n/a	1
345.72	0.699989602	MANHOLE	lure	n/a	n/a	n/a	1
346.42	0.383333282	SURGEON	lure	n/a	n/a	n/a	1
346.803	0.699986479	TRESPASSER	lure	n/a	n/a	n/a	1
347.503	0.749988038	SCOOTER	lure	n/a	n/a	n/a	1
348.253	0.566663382	AIRSHIP	lure	n/a	n/a	n/a	1
348.82	0.566716779	HUMANISM	lure	n/a	n/a	n/a	1
349.387	0.416603903	CHOPPER	lure	n/a	n/a	n/a	1
349.803	0.617378655	PATCH	short	n/a	n/a	n/a	1
350.421	0.682600967	DIRECTION	lure	n/a	n/a	n/a	1
351.103	0.549991166	GRINDER	lure	n/a	n/a	n/a	1
351.653	0.666724173	EJECTOR	lure	n/a	n/a	n/a	1
352.32	0.683257477	KOALA	lure	n/a	n/a	n/a	1
353.003	0.383329579	LIP	lure	n/a	n/a	n/a	1
353.387	0.399995986	GENERATOR	lure	n/a	n/a	n/a	1
353.787	0.383324055	SYMPTOM	lure	n/a	n/a	n/a	1
354.17	0.616660075	SCRIPTURE	lure	n/a	n/a	n/a	1
354.787	0.566658982	SOLVENCY	lure	n/a	n/a	n/a	1
355.353	0.449991655	COCOA	lure	n/a	n/a	n/a	1
355.803	0.52114181	PIGLET	lure	n/a	n/a	n/a	1
356.324	0.333554293	PALATE	lure	n/a	n/a	n/a	1
356.658	0.745282629	TICKER	lure	n/a	n/a	n/a	1
357.403	0.416659975	PRINCIPLE	lure	n/a	n/a	n/a	1
357.82	0.616658989	CHROME	short	n/a	n/a	n/a	1
358.436	0.583325884	SPARSITY	lure	n/a	n/a	n/a	1
359.02	0.599990379	DUMPLING	lure	n/a	n/a	n/a	1
359.62	0.633326584	SWIMSUIT	lure	n/a	n/a	n/a	1
360.253	0.466655602	PLAINTIFF	lure	n/a	n/a	n/a	1
360.72	0.349998627	INQUIRER	lure	n/a	n/a	n/a	1
361.07	0.349994501	SUCROSE	lure	n/a	n/a	n/a	1
361.42	0.616657548	DEW	lure	n/a	n/a	n/a	1
362.036	0.316661739	SKYSCRAPER	lure	n/a	n/a	n/a	1
362.353	0.449994712	VALIDITY	lure	n/a	n/a	n/a	1
362.803	0.666658625	MOWER	lure	n/a	n/a	n/a	1
363.47	0.466661475	WICKET	lure	n/a	n/a	n/a	1
363.936	0.683323465	HEDGEHOG	lure	n/a	n/a	n/a	1
364.62	0.416660881	BOTTLENECK	lure	n/a	n/a	n/a	1
365.036	0.383328302	RECIPE	lure	n/a	n/a	n/a	1
365.42	0.599989142	MASOn/aY	lure	n/a	n/a	n/a	1
366.02	0.616655271	SAND	short	n/a	n/a	n/a	1
366.636	0.367887839	MONTH	lure	n/a	n/a	n/a	1
367.004	0.365438271	NUMERAL	lure	n/a	n/a	n/a	1
367.37	0.718139241	FOREHEAD	lure	n/a	n/a	n/a	1
368.088	0.366782715	REMORSE	lure	n/a	n/a	n/a	1
368.455	0.38172403	BANKNOTE	lure	n/a	n/a	n/a	1
368.836	0.716657688	ARRIVAL	lure	n/a	n/a	n/a	1
369.553	0.533325953	LIZARD	lure	n/a	n/a	n/a	1
370.086	0.749990071	DISTENSION	lure	n/a	n/a	n/a	1
370.836	0.416659504	INJUSTICE	lure	n/a	n/a	n/a	1
371.253	0.41666061	CHANTER	lure	n/a	n/a	n/a	1
371.67	0.566655075	BACKYARD	lure	n/a	n/a	n/a	1
372.236	0.449998065	PORCH	lure	n/a	n/a	n/a	1
372.686	0.683326909	EMBLEM	lure	n/a	n/a	n/a	1
373.37	0.533318913	CONVERSION	lure	n/a	n/a	n/a	1
373.903	0.633325118	CELIBACY	lure	n/a	n/a	n/a	1
374.536	2.016644501	CABLE	long	n/a	n/a	n/a	1
376.553	0.750033858	PATROLMEN	lure	n/a	n/a	n/a	1
377.303	0.699943453	WEAVER	lure	n/a	n/a	n/a	1
378.003	0.549988173	DRAWER	lure	n/a	n/a	n/a	1
378.553	0.649992669	HEROISM	lure	n/a	n/a	n/a	1
379.203	0.351139951	GOURMET	lure	n/a	n/a	n/a	1
379.554	0.698847674	ZEBRA	lure	n/a	n/a	n/a	1
380.253	0.716657804	MAGICIAN	lure	n/a	n/a	n/a	1
380.97	0.466657729	MASTERSHIP	lure	n/a	n/a	n/a	1
381.436	0.483325846	PAGEANTRY	lure	n/a	n/a	n/a	1
381.919	0.399996903	CASUALTY	lure	n/a	n/a	n/a	1
382.319	0.416661928	WHIMSEY	lure	n/a	n/a	n/a	1
382.736	0.616653462	COMPASS	short	n/a	n/a	n/a	1
383.353	0.749990424	KEROSENE	lure	n/a	n/a	n/a	1
384.103	0.333332091	FIREBOX	lure	n/a	n/a	n/a	1
384.436	0.483323346	SLIPSTREAM	lure	n/a	n/a	n/a	1
384.919	0.416660977	AMBITION	lure	n/a	n/a	n/a	1
385.336	0.599990242	CARDIGAN	lure	n/a	n/a	n/a	1
385.936	0.749991913	MASON	lure	n/a	n/a	n/a	1
386.686	0.649989822	PRESENCE	lure	n/a	n/a	n/a	1
387.336	0.683324213	CRYPTOGRAM	lure	n/a	n/a	n/a	1
388.019	0.399994374	POPGUN	lure	n/a	n/a	n/a	1
388.419	0.533325297	WHALER	lure	n/a	n/a	n/a	1
388.953	0.749987255	SHANK	lure	n/a	n/a	n/a	1
389.703	0.466665867	RITZ	lure	n/a	n/a	n/a	1
390.169	0.549991775	AGENDA	lure	n/a	n/a	n/a	1
390.719	2.016634641	BOAT	long	n/a	n/a	n/a	1
392.736	0.383332202	PENTAMETER	lure	n/a	n/a	n/a	1
393.119	0.516656817	LOBSTER	lure	n/a	n/a	n/a	1
393.636	0.316665392	MIDDEN	lure	n/a	n/a	n/a	1
393.953	0.383326194	LEAGUE	lure	n/a	n/a	n/a	1
394.336	0.666717544	DRAGNET	lure	n/a	n/a	n/a	1
395.003	0.399936136	DISUSE	lure	n/a	n/a	n/a	1
395.403	0.733635289	AMBIENCE	lure	n/a	n/a	n/a	1
396.136	0.599679295	TALCUM	lure	n/a	n/a	n/a	1
396.736	0.583325476	HOMELAND	lure	n/a	n/a	n/a	1
397.319	0.599991134	TRANSCRIPT	lure	n/a	n/a	n/a	1
397.919	0.533322562	DIALOGUE	lure	n/a	n/a	n/a	1
398.453	0.43333084	LOVER	lure	n/a	n/a	n/a	1
398.886	0.6166526	JAIL	short	n/a	n/a	n/a	1
399.503	0.766661426	KILO	lure	n/a	n/a	n/a	1
400.269	0.649985078	ADMIRATION	lure	n/a	n/a	n/a	1
400.919	0.383331392	CONTORTION	lure	n/a	n/a	n/a	1
401.303	0.749989431	SWATCH	lure	n/a	n/a	n/a	1
402.053	0.499993398	ALLOWANCE	lure	n/a	n/a	n/a	1
402.553	0.583325604	MISDEAL	lure	n/a	n/a	n/a	1
403.136	0.499993642	STALLION	lure	n/a	n/a	n/a	1
403.636	0.633319865	TENDENCY	lure	n/a	n/a	n/a	1
404.269	0.499998396	NONDRIVER	lure	n/a	n/a	n/a	1
404.769	0.68331938	PREACHER	lure	n/a	n/a	n/a	1
405.452	0.449994614	ENDURANCE	lure	n/a	n/a	n/a	1
405.902	0.766657083	INFANCY	lure	n/a	n/a	n/a	1
406.669	0.516659251	AIRSPACE	lure	n/a	n/a	n/a	1
407.186	1.016649677	GRAPEFRUIT	fruit	660	2	2	1
408.202	0.666659243	PLASM	lure	n/a	n/a	n/a	1
408.869	0.666657151	LAIR	lure	n/a	n/a	n/a	1
409.536	0.766660285	AUTHORSHIP	lure	n/a	n/a	n/a	1
410.302	0.683323275	ARCHANGEL	lure	n/a	n/a	n/a	1
410.986	0.466656893	HEXAGON	lure	n/a	n/a	n/a	1
411.452	0.383328435	RATION	lure	n/a	n/a	n/a	1
411.836	0.399993916	ANTELOPE	lure	n/a	n/a	n/a	1
412.236	0.583367083	BOOKEND	lure	n/a	n/a	n/a	1
412.819	0.549952154	HEIGHT	lure	n/a	n/a	n/a	1
413.369	0.34999832	REGIMEN	lure	n/a	n/a	n/a	1
413.719	0.733321963	BUCKTOOTH	lure	n/a	n/a	n/a	1
414.452	0.533322755	IMPORTANCE	lure	n/a	n/a	n/a	1
414.986	0.599991094	WAYSIDE	lure	n/a	n/a	n/a	1
415.586	1.016653601	PEACH	fruit	612	2	2	1
416.602	0.466656666	LISTENER	lure	n/a	n/a	n/a	1
417.069	0.466662258	VISCOSITY	lure	n/a	n/a	n/a	1
417.536	0.666656865	KILLJOY	lure	n/a	n/a	n/a	1
418.202	0.483324588	ANTENNA	lure	n/a	n/a	n/a	1
418.686	0.400054172	SOFTY	lure	n/a	n/a	n/a	1
419.086	0.733266906	ALGAE	lure	n/a	n/a	n/a	1
419.819	0.333334761	STARLET	lure	n/a	n/a	n/a	1
420.152	0.633358193	PSYCHE	lure	n/a	n/a	n/a	1
420.786	0.683283543	REBELLION	lure	n/a	n/a	n/a	1
421.469	0.599994531	ORCHID	lure	n/a	n/a	n/a	1
422.069	0.35004803	TORMENT	lure	n/a	n/a	n/a	1
422.419	0.333275564	REDSKIN	lure	n/a	n/a	n/a	1
422.752	0.566658072	LOTION	lure	n/a	n/a	n/a	1
423.319	0.500036648	DRAWSTRING	lure	n/a	n/a	n/a	1
423.819	2.016594974	RATTLE	long	n/a	n/a	n/a	1
425.836	0.733323675	TALENT	lure	n/a	n/a	n/a	1
426.569	0.433322509	SCOREBOOK	lure	n/a	n/a	n/a	1
427.002	0.599994309	RESCUER	lure	n/a	n/a	n/a	1
427.602	0.366661195	GREENHOUSE	lure	n/a	n/a	n/a	1
427.969	0.733328829	RASH	lure	n/a	n/a	n/a	1
428.702	0.633323451	TENT	lure	n/a	n/a	n/a	1
429.336	0.366660184	WHISTLE	lure	n/a	n/a	n/a	1
429.702	0.433326434	DEFENDER	lure	n/a	n/a	n/a	1
430.135	0.766653766	REFERENDUM	lure	n/a	n/a	n/a	1
430.902	0.683324694	MARGARINE	lure	n/a	n/a	n/a	1
431.585	0.74998973	CAVEMAN	lure	n/a	n/a	n/a	1
432.335	0.616659779	ATLAS	short	n/a	n/a	n/a	1
432.952	0.633322324	PONY	lure	n/a	n/a	n/a	1
433.585	0.416661464	RECREATION	lure	n/a	n/a	n/a	1
434.002	0.566657099	CLIQUE	lure	n/a	n/a	n/a	1
434.569	0.666658474	FRIDGE	lure	n/a	n/a	n/a	1
435.235	0.699991089	CONSULTANT	lure	n/a	n/a	n/a	1
435.935	0.333326064	KIDDER	lure	n/a	n/a	n/a	1
436.269	0.499999779	TRIAD	lure	n/a	n/a	n/a	1
436.769	0.500040286	ONYX	lure	n/a	n/a	n/a	1
437.269	0.616609496	REAM	lure	n/a	n/a	n/a	1
437.885	0.583358833	INCEPTION	lure	n/a	n/a	n/a	1
438.469	0.433329056	APPRAISAL	lure	n/a	n/a	n/a	1
438.902	0.383289339	DEPUTY	lure	n/a	n/a	n/a	1
439.285	0.449990225	DISPERSAL	lure	n/a	n/a	n/a	1
439.735	0.733331599	ANTIDOTE	lure	n/a	n/a	n/a	1
440.469	0.333327286	PAINKILLER	lure	n/a	n/a	n/a	1
440.802	2.016636648	BASIN	long	n/a	n/a	n/a	1
442.819	0.549988876	ROD	lure	n/a	n/a	n/a	1
443.369	0.45389021	TRANSITION	lure	n/a	n/a	n/a	1
443.823	0.382561698	ADRENALIN	lure	n/a	n/a	n/a	1
444.205	0.40056444	MAKEUP	lure	n/a	n/a	n/a	1
444.606	0.665793023	CRIME	lure	n/a	n/a	n/a	1
445.271	0.497199262	RESOLUTION	lure	n/a	n/a	n/a	1
445.769	0.404147159	FORERUNNER	lure	n/a	n/a	n/a	1
446.173	0.329140695	LEOTARD	lure	n/a	n/a	n/a	1
446.502	0.73332344	RIGIDITY	lure	n/a	n/a	n/a	1
447.235	0.699984575	SCRAPBOOK	lure	n/a	n/a	n/a	1
447.935	0.733386608	CONTRACTOR	lure	n/a	n/a	n/a	1
448.669	0.366654562	VERTIGO	lure	n/a	n/a	n/a	1
449.035	2.016586006	CHISEL	long	n/a	n/a	n/a	1
451.052	0.699985994	COMMUNE	lure	n/a	n/a	n/a	1
451.752	0.549989514	YACHTSMAN	lure	n/a	n/a	n/a	1
452.302	0.349995511	NARCISSIST	lure	n/a	n/a	n/a	1
452.652	0.666657001	VARIANCE	lure	n/a	n/a	n/a	1
453.318	0.333333423	SELLER	lure	n/a	n/a	n/a	1
453.652	0.649995453	PIGSKIN	lure	n/a	n/a	n/a	1
454.302	0.616654233	TRAY	lure	n/a	n/a	n/a	1
454.918	0.366656281	BAYONET	lure	n/a	n/a	n/a	1
455.285	0.449998652	MONSOON	lure	n/a	n/a	n/a	1
455.735	0.416661787	TEDDY	lure	n/a	n/a	n/a	1
456.152	0.633322101	PROCEDURE	lure	n/a	n/a	n/a	1
456.785	0.733323768	SURREALIST	lure	n/a	n/a	n/a	1
457.518	0.749985329	GHOUL	lure	n/a	n/a	n/a	1
458.268	0.699990929	BOWSTRING	lure	n/a	n/a	n/a	1
458.968	0.499998252	NATURALISM	lure	n/a	n/a	n/a	1
459.468	0.649992133	AMPLIFIER	lure	n/a	n/a	n/a	1
460.118	0.633325612	MEDITATION	lure	n/a	n/a	n/a	1
460.752	0.499988455	RIVERVIEW	lure	n/a	n/a	n/a	1
461.252	0.749992131	BENEFACTOR	lure	n/a	n/a	n/a	1
462.002	0.433321078	PEPPERCORN	lure	n/a	n/a	n/a	1
462.435	0.699990738	REPUBLIC	lure	n/a	n/a	n/a	1
463.135	0.569283457	TURNAROUND	lure	n/a	n/a	n/a	1
463.704	0.697372903	EXTRACTOR	lure	n/a	n/a	n/a	1
464.402	n/a	BALE	lure	n/a	n/a	n/a	1