onset	duration	stim	cond	resp	acc	RT
4.044	0.413	GUMDROP	lure	NR	1	NR
4.461	0.594	WASHOUT	lure	NR	1	NR
5.061	0.485	SIDEBOARD	lure	NR	1	NR
5.561	0.438	HAWKER	lure	NR	1	NR
6.011	0.502	VERANDA	lure	NR	1	NR
6.594	2.001	DEPOT	long	NR	1	NR
8.611	0.499	HARLOT	lure	NR	1	NR
9.128	0.486	INDIGENCE	lure	NR	1	NR
9.628	0.43	HEADLINE	lure	NR	1	NR
10.061	0.627	FOWLER	lure	NR	1	NR
10.694	0.371	ZEST	lure	NR	1	NR
11.078	0.43	OKRA	lure	NR	1	NR
11.511	0.488	VISA	lure	NR	1	NR
12.011	0.502	SKETCHPAD	lure	NR	1	NR
12.527	0.602	CLOAK	short	NR	1	NR
13.144	0.6	CUTTER	lure	NR	1	NR
13.761	0.746	KRAUT	lure	NR	1	NR
14.511	0.682	EARPIECE	lure	NR	1	NR
15.211	0.535	HYPERBOLA	lure	NR	1	NR
15.761	0.672	OIL	lure	NR	1	NR
16.444	0.458	MERMAID	lure	NR	1	NR
16.911	0.739	CUPFUL	lure	NR	1	NR
17.662	0.337	COMMANDER	lure	NR	1	NR
18.011	0.501	HANDBALL	lure	NR	1	NR
18.527	1.001	GRAPE	fruit	detect	1	621
19.611	0.676	VALIDITY	lure	NR	1	NR
20.294	0.515	STRAIT	lure	NR	1	NR
20.827	0.73	COP	lure	NR	1	NR
21.561	0.591	PILGRIM	lure	NR	1	NR
22.161	0.583	MILLENNIA	lure	NR	1	NR
22.761	0.674	ARCHBISHOP	lure	NR	1	NR
23.444	0.423	DRAPERY	lure	NR	1	NR
23.878	0.457	PROPENSITY	lure	NR	1	NR
24.348	0.377	INCLINE	lure	NR	1	NR
24.744	0.337	AMAZEMENT	lure	NR	1	NR
25.094	0.383	VIGILANCE	lure	NR	1	NR
25.494	0.505	UNIFORMITY	lure	NR	1	NR
26.011	0.501	ANIMATION	lure	NR	1	NR
26.527	2.002	NOTE	long	NR	1	NR
28.544	0.617	LANDROVER	lure	NR	1	NR
29.177	0.364	DELEGATION	lure	NR	1	NR
29.561	0.338	STYLIST	lure	NR	1	NR
29.911	0.696	DEMOTION	lure	NR	1	NR
30.611	0.49	CUCUMBER	lure	NR	1	NR
31.111	0.744	APOSTLE	lure	NR	1	NR
31.944	0.54	GALLERY	lure	NR	1	NR
32.494	0.36	TONIC	lure	NR	1	NR
32.861	0.519	PERSONAGE	lure	NR	1	NR
33.394	0.44	VALENTINE	lure	NR	1	NR
33.844	0.154	HEYDAY	lure	NR	1	NR
34.011	0.501	MORALE	lure	NR	1	NR
34.527	1.002	ELDERBERRY	fruit	NR	0	NR
35.544	0.531	COWARDICE	lure	NR	1	NR
36.094	0.438	BUGABOO	lure	NR	1	NR
36.544	0.306	ALLOCATION	lure	NR	1	NR
36.861	0.448	INTRUDER	lure	NR	1	NR
37.327	0.411	WOODCUT	lure	NR	1	NR
37.744	0.46	NUTMEG	lure	NR	1	NR
38.21	0.718	DEFROSTER	lure	NR	1	NR
38.944	0.508	IMPUDENCE	lure	NR	1	NR
39.46	0.673	CHAPTER	lure	NR	1	NR
40.144	0.629	LATECOMER	lure	NR	1	NR
40.777	0.643	ECTOPLASM	lure	NR	1	NR
41.427	0.55	GRASSLAND	lure	NR	1	NR
41.994	0.34	HEATHER	lure	NR	1	NR
42.427	0.506	CAFFEINE	lure	NR	1	NR
42.944	0.646	ENDEARMENT	lure	NR	1	NR
43.594	0.405	STRENGTH	lure	NR	1	NR
44.01	0.502	MAGNITUDE	lure	NR	1	NR
44.527	2.003	SHELL	long	NR	1	NR
46.544	0.393	SOLOIST	lure	NR	1	NR
46.944	0.527	PERCUSSION	lure	NR	1	NR
47.477	0.593	CHILDREN	lure	NR	1	NR
48.077	0.604	SLANDERER	lure	NR	1	NR
48.694	0.417	VINE	lure	NR	1	NR
49.127	0.571	SWEETHEART	lure	NR	1	NR
49.711	0.39	INFAMY	lure	NR	1	NR
50.112	0.606	DOORWAY	lure	NR	1	NR
50.731	0.306	WINTERTIME	lure	NR	1	NR
51.044	0.565	ABDOMEN	lure	NR	1	NR
51.627	0.42	POLLUTANT	lure	NR	1	NR
52.06	0.676	RESENTMENT	lure	NR	1	NR
52.744	0.681	DISRESPECT	lure	NR	1	NR
53.444	0.555	GRADIENT	lure	NR	1	NR
54.012	0.501	WHOOP	lure	NR	1	NR
54.61	0.601	COAST	short	NR	1	NR
55.227	0.656	LOOKUP	lure	NR	1	NR
55.894	0.575	DEADWOOD	lure	NR	1	NR
56.477	0.751	WART	lure	NR	1	NR
57.244	0.438	SEGMENT	lure	NR	1	NR
57.694	0.324	INSURANCE	lure	NR	1	NR
58.027	0.65	VOLCANO	lure	NR	1	NR
58.694	0.536	POSSE	lure	NR	1	NR
59.244	0.448	ARCHETYPE	lure	NR	1	NR
59.71	0.46	LATTICE	lure	NR	1	NR
60.177	0.573	MALT	lure	NR	1	NR
60.76	0.536	POLICEMAN	lure	NR	1	NR
61.31	0.634	WINE	lure	NR	1	NR
61.96	0.039	BRONCO	lure	NR	1	NR
62.01	0.502	SPEEDUP	lure	NR	1	NR
62.527	0.602	ANCHOR	short	NR	1	NR
63.143	0.49	ILLITERACY	lure	NR	1	NR
63.643	0.366	FILAMENT	lure	NR	1	NR
64.027	0.717	BRAILLE	lure	NR	1	NR
64.76	0.473	OCCURRENCE	lure	NR	1	NR
65.31	0.337	FIREPLACE	lure	NR	1	NR
65.66	0.536	DUCKBILL	lure	NR	1	NR
66.21	0.547	ANGEL	lure	NR	1	NR
66.76	0.458	STUPIDITY	lure	NR	1	NR
67.227	0.337	CORNBREAD	lure	NR	1	NR
67.577	0.488	WOODSHED	lure	NR	1	NR
68.077	0.343	THEOLOGIAN	lure	NR	1	NR
68.427	0.409	GRANDAD	lure	NR	1	NR
68.843	0.345	PERIODICAL	lure	NR	1	NR
69.193	0.805	TERRY	lure	NR	1	NR
70.01	0.501	SUNBONNET	lure	NR	1	NR
70.527	0.602	SIGN	short	NR	1	NR
71.143	0.439	INDULGENCE	lure	NR	1	NR
71.593	0.553	INFORMER	lure	NR	1	NR
72.16	0.46	NIGHTCAP	lure	NR	1	NR
72.627	0.322	PURIST	lure	NR	1	NR
72.96	0.604	PANE	lure	NR	1	NR
73.577	0.32	INLET	lure	NR	1	NR
73.91	0.738	LITER	lure	NR	1	NR
74.66	0.541	SIDEWINDER	lure	NR	1	NR
75.277	0.749	LOLLIPOP	lure	NR	1	NR
76.043	0.729	POSTULATE	lure	NR	1	NR
76.777	0.315	TIDBIT	lure	NR	1	NR
77.11	0.578	SWINDLER	lure	NR	1	NR
77.693	0.385	WAGON	lure	NR	1	NR
78.093	0.526	GUNMEN	lure	NR	1	NR
78.627	0.574	FACET	lure	NR	1	NR
79.212	0.788	PLAYBACK	lure	NR	1	NR
80.012	0.501	EXALTATION	lure	NR	1	NR
80.527	1.004	NECTARINE	fruit	detect	1	702
81.543	0.604	AIRFLOW	lure	NR	1	NR
82.16	0.355	WASHCLOTH	lure	NR	1	NR
82.527	0.561	KINFOLK	lure	NR	1	NR
83.093	0.452	BUNTING	lure	NR	1	NR
83.56	0.75	GRANDSTAND	lure	NR	1	NR
84.326	0.488	CUISINE	lure	NR	1	NR
84.826	0.725	PEDICURE	lure	NR	1	NR
85.56	0.308	GLYCERINE	lure	NR	1	NR
85.876	0.676	PONYTAIL	lure	NR	1	NR
86.564	0.494	DETONATION	lure	NR	1	NR
87.143	0.579	PEPPERMINT	lure	NR	1	NR
87.727	0.413	BOOKBINDER	lure	NR	1	NR
88.143	0.457	EVERYBODY	lure	NR	1	NR
88.61	0.432	EDDY	lure	NR	1	NR
89.06	0.599	SALE	lure	NR	1	NR
89.676	0.322	BREADCRUMB	lure	NR	1	NR
90.01	0.501	MULE	lure	NR	1	NR
90.526	0.602	PILE	short	NR	1	NR
91.143	0.315	FAIRWAY	lure	NR	1	NR
91.476	0.385	DESTINY	lure	NR	1	NR
91.876	0.512	BREEDER	lure	NR	1	NR
92.393	0.367	VERACITY	lure	NR	1	NR
92.776	0.552	PILLION	lure	NR	1	NR
93.343	0.397	SWORDPLAY	lure	NR	1	NR
93.743	0.388	BABYHOOD	lure	NR	1	NR
94.143	0.519	DESTROYER	lure	NR	1	NR
94.676	0.551	SUNTAN	lure	NR	1	NR
95.243	0.527	INFO	lure	NR	1	NR
95.776	0.6	TANTRUM	lure	NR	1	NR
96.393	0.734	MAILMAN	lure	NR	1	NR
97.21	0.788	CRACKER	lure	NR	1	NR
98.01	0.501	SANCTITY	lure	NR	1	NR
98.526	2.001	COAL	long	NR	1	NR
100.543	0.462	BEE	lure	NR	1	NR
101.01	0.748	SKEPTICISM	lure	NR	1	NR
101.776	0.708	DECEIT	lure	NR	1	NR
102.493	0.42	ROSEBUD	lure	NR	1	NR
102.926	0.699	MOTIF	lure	NR	1	NR
103.643	0.452	HUSK	lure	NR	1	NR
104.11	0.725	WEDLOCK	lure	NR	1	NR
104.843	0.422	BUREAU	lure	NR	1	NR
105.276	0.716	HOSTAGE	lure	NR	1	NR
106.01	0.652	LINKAGE	lure	NR	1	NR
106.676	0.478	MIDRIFF	lure	NR	1	NR
107.16	0.84	TRACHEA	lure	NR	1	NR
108.01	0.502	FREEDMAN	lure	NR	1	NR
108.526	0.602	FOIL	short	NR	1	NR
109.143	0.657	DILATION	lure	NR	1	NR
109.812	0.504	PAINTBRUSH	lure	NR	1	NR
110.327	0.692	TOURNAMENT	lure	NR	1	NR
111.109	0.315	TAXPAYER	lure	NR	1	NR
111.443	0.494	UPSTART	lure	NR	1	NR
111.943	0.422	EARTHLING	lure	NR	1	NR
112.376	0.638	AIRMEN	lure	NR	1	NR
113.026	0.487	SQUEALER	lure	NR	1	NR
113.526	0.394	ANTONYM	lure	NR	1	NR
113.926	0.674	DOMICILE	lure	NR	1	NR
114.609	0.471	WATCHTOWER	lure	NR	1	NR
115.093	0.713	TRAPEZE	lure	NR	1	NR
115.809	0.716	WONDERLAND	lure	NR	1	NR
116.543	0.371	INFANTRY	lure	NR	1	NR
116.926	0.748	HOBBYHORSE	lure	NR	1	NR
117.693	0.407	VENTURER	lure	NR	1	NR
118.109	0.522	PENTAMETER	lure	NR	1	NR
118.643	0.699	FAREWELL	lure	NR	1	NR
119.359	0.631	JUNIPER	lure	NR	1	NR
120.009	0.502	PAPRIKA	lure	NR	1	NR
120.526	1.002	GRAPEFRUIT	fruit	detect	1	663
121.543	0.381	FIREWATER	lure	NR	1	NR
121.943	0.63	CLERK	lure	NR	1	NR
122.659	0.587	TITAN	lure	NR	1	NR
123.259	0.737	HUTCH	lure	NR	1	NR
124.009	0.699	POSTBOX	lure	NR	1	NR
124.726	0.373	MOONSHINE	lure	NR	1	NR
125.109	0.708	CHOLERA	lure	NR	1	NR
125.826	0.607	PARITY	lure	NR	1	NR
126.443	0.303	ARTERY	lure	NR	1	NR
126.759	0.678	STEPLADDER	lure	NR	1	NR
127.443	0.457	ROBIN	lure	NR	1	NR
127.909	0.531	PROFESSOR	lure	NR	1	NR
128.459	0.566	BROADSWORD	lure	NR	1	NR
129.043	0.469	TRICKSTER	lure	NR	1	NR
129.526	0.492	WARDROBE	lure	NR	1	NR
130.026	0.487	SPEAKEASY	lure	NR	1	NR
130.526	0.667	TAB	lure	NR	1	NR
131.209	0.781	BONGO	lure	NR	1	NR
132.009	0.501	TROUGH	lure	NR	1	NR
132.526	1.001	ELDERBERRY	fruit	detect	1	879
133.542	0.382	MISCOUNT	lure	NR	1	NR
133.942	0.643	WINDBAG	lure	NR	1	NR
134.676	0.731	BICYCLE	lure	NR	1	NR
135.409	0.546	JOSH	lure	NR	1	NR
135.959	0.56	BOILER	lure	NR	1	NR
136.526	0.348	SCHOOLWORK	lure	NR	1	NR
136.876	0.711	ASSISTANCE	lure	NR	1	NR
137.592	0.436	SALESLADY	lure	NR	1	NR
138.042	0.375	DUCT	lure	NR	1	NR
138.426	0.698	OVERPRINT	lure	NR	1	NR
139.142	0.342	PEN	lure	NR	1	NR
139.496	0.471	NIRVANA	lure	NR	1	NR
139.976	0.573	FREQUENCY	lure	NR	1	NR
140.559	0.476	DEERSKIN	lure	NR	1	NR
141.042	0.494	TUNNEL	lure	NR	1	NR
141.542	0.743	LIGHTNING	lure	NR	1	NR
142.292	0.599	MORN	lure	NR	1	NR
142.909	0.634	CRUDE	lure	NR	1	NR
143.559	0.432	HAIKU	lure	NR	1	NR
144.009	0.502	PINT	lure	NR	1	NR
144.526	2.002	PHONE	long	NR	1	NR
146.542	0.394	ERASURE	lure	NR	1	NR
147.026	0.74	NONSENSE	lure	NR	1	NR
147.776	0.608	SHOWGIRL	lure	NR	1	NR
148.392	0.714	EARDRUM	lure	NR	1	NR
149.109	0.441	GRAD	lure	NR	1	NR
149.562	0.378	CARETAKER	lure	NR	1	NR
149.942	0.682	DECENCY	lure	NR	1	NR
150.642	0.574	APPETIZER	lure	NR	1	NR
151.226	0.766	COOKOUT	lure	NR	1	NR
152.009	0.503	TICKER	lure	NR	1	NR
152.526	2.001	SUMMIT	long	NR	1	NR
154.542	0.459	PANACEA	lure	NR	1	NR
155.009	0.69	SOPHOMORE	lure	NR	1	NR
155.709	0.641	LAWYER	lure	NR	1	NR
156.359	0.573	SHOWROOM	lure	NR	1	NR
156.942	0.463	TELETYPE	lure	NR	1	NR
157.409	0.583	PROFUSION	lure	NR	1	NR
158.009	0.501	INNUENDO	lure	NR	1	NR
158.525	0.603	BLIZZARD	short	NR	1	NR
159.142	0.654	HORSEMAN	lure	NR	1	NR
159.809	0.735	DUTY	lure	NR	1	NR
160.642	0.605	DOME	lure	NR	1	NR
161.259	0.711	PAINTBOX	lure	NR	1	NR
161.975	0.422	WAIST	lure	NR	1	NR
162.409	0.546	HEARTBURN	lure	NR	1	NR
162.959	0.481	EYESIGHT	lure	NR	1	NR
163.459	0.44	ROSEWATER	lure	NR	1	NR
163.909	0.659	TRIBUTE	lure	NR	1	NR
164.575	0.549	SUNDIAL	lure	NR	1	NR
165.142	0.85	STOCKMAN	lure	NR	1	NR
166.009	0.502	CONDUCTION	lure	NR	1	NR
166.525	0.601	CORD	short	NR	1	NR
167.142	0.581	COYOTE	lure	NR	1	NR
167.725	0.723	DAGGER	lure	NR	1	NR
168.459	0.525	BARON	lure	NR	1	NR
168.996	0.322	SPANIEL	lure	NR	1	NR
169.329	0.61	DROPLET	lure	NR	1	NR
169.959	0.453	CONCAVITY	lure	NR	1	NR
170.425	0.427	MIXER	lure	NR	1	NR
170.859	0.609	AMPUTATION	lure	NR	1	NR
171.475	0.534	COVE	lure	NR	1	NR
172.092	0.531	BREATHER	lure	NR	1	NR
172.642	0.355	TEETH	lure	NR	1	NR
173.009	0.673	SCANDAL	lure	NR	1	NR
173.694	0.592	SHORTCUT	lure	NR	1	NR
174.292	0.308	BRAZIER	lure	NR	1	NR
174.609	0.678	GOLDFISH	lure	NR	1	NR
175.292	0.698	JAR	lure	NR	1	NR
176.009	0.501	DISASTER	lure	NR	1	NR
176.525	2.002	RAIL	long	NR	1	NR
178.542	0.369	OPIUM	lure	NR	1	NR
178.925	0.406	COPIER	lure	NR	1	NR
179.342	0.659	FACTORY	lure	NR	1	NR
180.009	0.546	MORTAR	lure	NR	1	NR
180.559	0.354	IDEOLOGY	lure	NR	1	NR
180.925	0.606	GANGWAY	lure	NR	1	NR
181.543	0.415	ABSOLUTION	lure	NR	1	NR
181.975	0.509	PHOTO	lure	NR	1	NR
182.492	0.478	FEEDBACK	lure	NR	1	NR
182.975	0.722	SEA	lure	NR	1	NR
183.708	0.284	PETITIONER	lure	NR	1	NR
184.075	0.501	CAESAREAN	lure	NR	1	NR
184.592	0.601	BOLT	short	NR	1	NR
185.208	0.504	PROJECTILE	lure	NR	1	NR
185.725	0.645	LEGALITY	lure	NR	1	NR
186.375	0.743	LOUDMOUTH	lure	NR	1	NR
187.125	0.362	PARKA	lure	NR	1	NR
187.492	0.502	EXULTATION	lure	NR	1	NR
188.008	0.685	JURY	lure	NR	1	NR
188.708	0.731	RAVINE	lure	NR	1	NR
189.458	0.561	NOZZLE	lure	NR	1	NR
190.025	0.549	DERIVATION	lure	NR	1	NR
190.592	0.634	CLARITY	lure	NR	1	NR
191.242	0.32	PISTON	lure	NR	1	NR
191.575	0.501	NITWIT	lure	NR	1	NR
192.092	0.75	RUNOFF	lure	NR	1	NR
192.858	0.464	MOONBEAM	lure	NR	1	NR
193.325	0.666	DUKE	lure	NR	1	NR
194.008	0.501	QUARRY	lure	NR	1	NR
194.525	1.004	BERRY	fruit	detect	1	568
195.542	0.673	WINDBREAK	lure	NR	1	NR
196.308	0.496	DUEL	lure	NR	1	NR
196.808	0.542	LEAGUE	lure	NR	1	NR
197.358	0.525	PERFUSION	lure	NR	1	NR
197.892	0.711	GOODWILL	lure	NR	1	NR
198.608	0.549	PLAGIARISM	lure	NR	1	NR
199.175	0.511	ANTENNAE	lure	NR	1	NR
199.692	0.434	TRIO	lure	NR	1	NR
200.142	0.352	FIELDSMAN	lure	NR	1	NR
200.508	0.695	TROLLEY	lure	NR	1	NR
201.208	0.5	SALESGIRL	lure	NR	1	NR
201.725	0.68	MAPLE	lure	NR	1	NR
202.408	0.547	UTENSIL	lure	NR	1	NR
202.958	0.516	COUCH	lure	NR	1	NR
203.492	0.499	BAYONET	lure	NR	1	NR
204.008	0.502	DEPOSITORY	lure	NR	1	NR
204.525	2.002	SPONGE	long	NR	1	NR
206.542	0.583	ROMP	lure	NR	1	NR
207.141	0.54	WATCHMEN	lure	NR	1	NR
207.691	0.625	BUCKSHOT	lure	NR	1	NR
208.325	0.607	DANCER	lure	NR	1	NR
209.025	0.428	PULLEY	lure	NR	1	NR
209.458	0.532	TROPHY	lure	NR	1	NR
210.008	0.501	AGITATOR	lure	NR	1	NR
210.525	2.001	DISC	long	NR	1	NR
212.541	0.739	PERMISSION	lure	NR	1	NR
213.291	0.697	APEX	lure	NR	1	NR
213.991	0.532	ATTORNEY	lure	NR	1	NR
214.541	0.618	FRACTION	lure	NR	1	NR
215.175	0.494	UNDERLAY	lure	NR	1	NR
215.675	0.43	SEASHORE	lure	NR	1	NR
216.108	0.57	BRUTE	lure	NR	1	NR
216.691	0.469	CUCKOO	lure	NR	1	NR
217.175	0.817	TEMPO	lure	NR	1	NR
218.008	0.502	PROTEGEE	lure	NR	1	NR
218.528	0.602	SOAP	short	NR	1	NR
219.141	0.353	CREVICE	lure	NR	1	NR
219.508	0.356	CRYSTAL	lure	NR	1	NR
219.875	0.343	ABILITY	lure	NR	1	NR
220.225	0.426	ROCKER	lure	NR	1	NR
220.658	0.649	AMOEBA	lure	NR	1	NR
221.391	0.627	MAVERICK	lure	NR	1	NR
222.025	0.36	FISHERMAN	lure	NR	1	NR
222.391	0.47	PERCENTAGE	lure	NR	1	NR
222.875	0.441	MUDSLINGER	lure	NR	1	NR
223.325	0.513	SCUT	lure	NR	1	NR
223.841	0.643	DECIMATION	lure	NR	1	NR
224.491	0.597	GURU	lure	NR	1	NR
225.091	0.333	REDNECK	lure	NR	1	NR
225.441	0.549	EVERYTHING	lure	NR	1	NR
226.008	0.501	GULLY	lure	NR	1	NR
226.525	2.002	BASKET	long	NR	1	NR
228.541	0.327	UNDERTAKER	lure	NR	1	NR
228.875	0.592	MEDIA	lure	NR	1	NR
229.475	0.357	EYELINER	lure	NR	1	NR
229.841	0.355	BOOKSELLER	lure	NR	1	NR
230.208	0.576	ONSLAUGHT	lure	NR	1	NR
230.791	0.557	WARDEN	lure	NR	1	NR
231.358	0.674	CONTESTANT	lure	NR	1	NR
232.043	0.663	WEB	lure	NR	1	NR
232.724	0.48	SAVANNAH	lure	NR	1	NR
233.291	0.336	SULFIDE	lure	NR	1	NR
233.641	0.72	PERCENTILE	lure	NR	1	NR
234.374	0.531	PROTRUSION	lure	NR	1	NR
234.924	0.529	GIZZARD	lure	NR	1	NR
235.458	0.571	WORKBOOK	lure	NR	1	NR
236.041	0.427	ADVICE	lure	NR	1	NR
236.474	0.504	FIASCO	lure	NR	1	NR
236.991	0.745	LANCER	lure	NR	1	NR
237.741	0.713	LEAFLET	lure	NR	1	NR
238.458	0.737	PRIMER	lure	NR	1	NR
239.208	0.739	PLANET	lure	NR	1	NR
239.958	0.41	SALON	lure	NR	1	NR
250.324	0.576	PROVIDER	lure	NR	1	NR
250.912	0.534	WALLFLOWER	lure	NR	1	NR
251.459	0.335	NOBODY	lure	NR	1	NR
251.808	0.403	DIVIDER	lure	NR	1	NR
252.224	0.735	HELMET	lure	NR	1	NR
252.974	0.425	FARMSTEAD	lure	NR	1	NR
253.408	0.461	TENOR	lure	NR	1	NR
253.874	0.118	ENSEMBLE	lure	NR	1	NR
254.074	0.501	CRYPTOGRAM	lure	NR	1	NR
254.591	0.601	CORD	short	NR	1	NR
255.208	0.591	GOLDSMITH	lure	NR	1	NR
255.807	0.594	PARAMETER	lure	NR	1	NR
256.407	0.599	DECANTER	lure	NR	1	NR
257.024	0.43	CARPORT	lure	NR	1	NR
257.458	0.662	BRUNT	lure	NR	1	NR
258.124	0.429	MAIZE	lure	NR	1	NR
258.558	0.541	JUROR	lure	NR	1	NR
259.107	0.751	KICKOFF	lure	NR	1	NR
259.874	0.558	SATIRIST	lure	NR	1	NR
260.444	0.388	UNDERSHIRT	lure	NR	1	NR
260.843	1.139	CROQUET	lure	NR	1	NR
261.995	0.501	WISHBONE	lure	NR	1	NR
262.508	0.601	FOIL	short	NR	1	NR
263.124	0.464	DEDUCTION	lure	NR	1	NR
263.591	0.708	FORE	lure	NR	1	NR
264.307	0.722	OPPONENT	lure	NR	1	NR
265.041	0.377	GREYHOUND	lure	NR	1	NR
265.429	0.471	MADMEN	lure	NR	1	NR
265.991	0.47	GIRAFFE	lure	NR	1	NR
266.474	0.693	BACKBEND	lure	NR	1	NR
267.174	0.51	OFFSPRING	lure	NR	1	NR
267.691	0.488	CATALYST	lure	NR	1	NR
268.191	0.457	POLE	lure	NR	1	NR
268.657	0.339	THIEVERY	lure	NR	1	NR
269.007	0.602	EVASION	lure	NR	1	NR
269.624	0.368	DINNER	lure	NR	1	NR
270.007	0.502	SAMBA	lure	NR	1	NR
270.524	2.001	SUMMIT	long	NR	1	NR
272.541	0.405	COMPANION	lure	NR	1	NR
272.957	0.378	SYMBOLISM	lure	NR	1	NR
273.341	0.612	MISDEAL	lure	NR	1	NR
273.957	0.505	ANTLER	lure	NR	1	NR
274.474	0.386	OBSERVANCE	lure	NR	1	NR
274.874	0.469	BLOWPIPE	lure	NR	1	NR
275.357	0.475	UNDERWOOD	lure	NR	1	NR
275.844	0.728	FRENZY	lure	NR	1	NR
276.591	0.608	TENDERFOOT	lure	NR	1	NR
277.207	0.784	OVERHANG	lure	NR	1	NR
278.074	0.501	MISCONDUCT	lure	NR	1	NR
278.591	0.602	COAST	short	NR	1	NR
279.207	0.624	ECLAIR	lure	NR	1	NR
279.843	0.52	LUMINOSITY	lure	detect	0	217
280.376	0.442	INFIDELITY	lure	NR	1	NR
280.824	0.45	EQUATOR	lure	NR	1	NR
281.29	0.369	ECONOMY	lure	NR	1	NR
281.674	0.334	JURIST	lure	NR	1	NR
282.024	0.603	STRAGGLER	lure	NR	1	NR
282.64	0.532	ANECDOTE	lure	NR	1	NR
283.19	0.571	COMMUTE	lure	NR	1	NR
283.774	0.673	SCARF	lure	NR	1	NR
284.459	0.697	CRICKET	lure	NR	1	NR
285.174	0.362	SWEETIE	lure	NR	1	NR
285.54	0.524	MANTLE	lure	NR	1	NR
286.074	0.566	EMBARGO	lure	NR	1	NR
286.657	0.648	DERBY	lure	NR	1	NR
287.324	0.658	GOULASH	lure	NR	1	NR
287.994	0.501	BOOKMARK	lure	NR	1	NR
288.507	2.003	DISC	long	NR	1	NR
290.593	0.531	DOWNER	lure	NR	1	NR
291.14	0.531	ELITISM	lure	NR	1	NR
291.69	0.52	ROLLER	lure	NR	1	NR
292.224	0.666	SULPHUR	lure	NR	1	NR
292.907	0.641	DEVOTEE	lure	NR	1	NR
293.557	0.466	ORGANIST	lure	NR	1	NR
294.04	0.409	SADDLEBAG	lure	NR	1	NR
294.457	0.449	ABERRATION	lure	NR	1	NR
294.924	0.685	BIOGRAPHY	lure	NR	1	NR
295.624	0.36	FREEDMEN	lure	NR	1	NR
295.99	0.501	COSTUME	lure	NR	1	NR
296.507	2.002	SHELL	long	NR	1	NR
298.524	0.467	AVERSION	lure	NR	1	NR
299.007	0.744	SHUTDOWN	lure	NR	1	NR
299.757	0.689	BAGFUL	lure	NR	1	NR
300.457	0.652	GAUNTLET	lure	NR	1	NR
301.124	0.364	TELECAST	lure	NR	1	NR
301.49	0.593	FOODSTUFF	lure	NR	1	NR
302.09	0.594	PASTEBOARD	lure	NR	1	NR
302.69	0.622	BISHOP	lure	NR	1	NR
303.407	0.737	CERVIX	lure	NR	1	NR
304.157	0.685	PASSPORT	lure	NR	1	NR
304.857	0.683	SOLICITUDE	lure	NR	1	NR
305.557	0.427	INFORMANT	lure	NR	1	NR
305.99	0.502	AUDITORIUM	lure	NR	1	NR
306.507	2.002	COAL	long	NR	1	NR
308.523	0.726	CHEST	lure	NR	1	NR
309.257	0.703	RIFLEMEN	lure	NR	1	NR
309.973	0.471	VOCALIST	lure	NR	1	NR
310.457	0.377	GEOLOGIST	lure	NR	1	NR
310.84	0.574	MARSUPIAL	lure	NR	1	NR
311.426	0.741	INTIMACY	lure	NR	1	NR
312.173	0.632	BATTERY	lure	NR	1	NR
312.823	0.555	CHAMPAGNE	lure	NR	1	NR
313.39	0.748	PANORAMA	lure	NR	1	NR
314.157	0.498	COMMUNION	lure	NR	1	NR
314.673	0.35	EMPIRE	lure	NR	1	NR
315.04	0.942	ICECAP	lure	NR	1	NR
315.99	0.501	PURSUIT	lure	NR	1	NR
316.507	0.601	BOLT	short	NR	1	NR
317.19	0.471	DARKROOM	lure	NR	1	NR
317.673	0.735	BLOCKAGE	lure	NR	1	NR
318.423	0.466	PACIFISM	lure	NR	1	NR
318.907	0.508	CHIC	lure	NR	1	NR
319.427	0.601	PLEASANTRY	lure	NR	1	NR
320.04	0.727	HEADPIECE	lure	NR	1	NR
320.773	0.35	HYPERBOLE	lure	NR	1	NR
321.14	0.395	PROMENADE	lure	NR	1	NR
321.54	0.655	FOREST	lure	NR	1	NR
322.207	0.729	BANKRUPTCY	lure	NR	1	NR
322.94	1.044	SOFTBALL	lure	NR	1	NR
323.99	0.502	KAYAK	lure	NR	1	NR
324.507	1.003	CHERRY	fruit	detect	1	674
325.523	0.699	HILLSIDE	lure	NR	1	NR
326.24	0.547	EMIGRATION	lure	NR	1	NR
326.79	0.464	BUFFET	lure	NR	1	NR
327.273	0.398	TYPESCRIPT	lure	NR	1	NR
327.69	0.423	POETRY	lure	NR	1	NR
328.123	0.748	MOUTH	lure	NR	1	NR
328.89	0.483	GUARDSMAN	lure	NR	1	NR
329.457	0.394	COMPLEXITY	lure	NR	1	NR
329.857	0.471	SPREE	lure	NR	1	NR
330.34	0.595	FUTILITY	lure	NR	1	NR
330.94	1.044	SAILCLOTH	lure	NR	1	NR
331.99	0.501	DUNCE	lure	NR	1	NR
332.506	0.601	CLOAK	short	NR	1	NR
333.123	0.736	CROSSBAR	lure	NR	1	NR
333.873	0.49	TURTLENECK	lure	NR	1	NR
334.373	0.399	PEAL	lure	NR	1	NR
334.79	0.327	DOWNPOUR	lure	NR	1	NR
335.123	0.635	AUTISM	lure	NR	1	NR
335.773	0.672	COUNTRYMEN	lure	NR	1	NR
336.456	0.342	SHELLSHOCK	lure	NR	1	NR
336.81	0.452	RAMPART	lure	NR	1	NR
337.274	0.566	ASCENT	lure	NR	1	NR
337.856	0.315	KEYSTONE	lure	NR	1	NR
338.19	0.604	INFLUENZA	lure	NR	1	NR
338.806	0.529	CHAIRMAN	lure	NR	1	NR
339.34	0.643	MATRIARCHY	lure	NR	1	NR
339.99	0.501	GANDER	lure	NR	1	NR
340.573	2.003	NOTE	long	NR	1	NR
342.59	0.609	KILOGRAM	lure	NR	1	NR
343.206	0.491	POLICEMEN	lure	NR	1	NR
343.706	0.697	ICEBOX	lure	NR	1	NR
344.406	0.313	FRUGALITY	lure	NR	1	NR
344.723	0.308	TENURE	lure	NR	1	NR
345.04	0.379	HALTER	lure	NR	1	NR
345.423	0.509	PROMPTER	lure	NR	1	NR
345.94	0.596	STAIRCASE	lure	NR	1	NR
346.54	0.34	WAY	lure	NR	1	NR
346.89	0.634	TABOO	lure	NR	1	NR
347.54	0.671	GOALIE	lure	NR	1	NR
348.223	0.568	PLANTATION	lure	NR	1	NR
348.806	0.606	SKIER	lure	NR	1	NR
349.424	0.559	EVE	lure	NR	1	NR
349.99	0.501	CHOW	lure	NR	1	NR
350.506	2.001	PHONE	long	NR	1	NR
352.523	0.39	COHORT	lure	NR	1	NR
352.923	0.738	BOUILLON	lure	NR	1	NR
353.673	0.48	MAIDEN	lure	NR	1	NR
354.24	0.48	INVESTMENT	lure	NR	1	NR
354.723	0.697	TEDDY	lure	NR	1	NR
355.423	0.522	ABSORPTION	lure	NR	1	NR
355.956	0.592	CARTRIDGE	lure	NR	1	NR
356.556	0.727	PROBLEM	lure	NR	1	NR
357.289	0.693	MUSKRAT	lure	NR	1	NR
357.99	0.5	INVENTION	lure	NR	1	NR
358.506	1.004	LIME	fruit	detect	1	835
359.523	0.654	DOE	lure	NR	1	NR
360.189	0.465	SONATA	lure	NR	1	NR
360.673	0.627	PRISONER	lure	NR	1	NR
361.306	0.565	SENSUALITY	lure	NR	1	NR
361.889	0.701	STRAINER	lure	NR	1	NR
362.606	0.639	BURNER	lure	NR	1	NR
363.256	0.589	POTBOILER	lure	NR	1	NR
363.857	0.397	RELATIVIST	lure	NR	1	NR
364.273	0.511	HIVE	lure	NR	1	NR
364.789	0.521	MANPOWER	lure	NR	1	NR
365.323	0.571	MENTHOL	lure	NR	1	NR
365.906	0.077	BUMBLEBEE	lure	NR	1	NR
366.073	0.502	DENIAL	lure	NR	1	NR
366.589	1.005	GRAPEFRUIT	fruit	detect	1	743
367.607	0.434	LABORATORY	lure	NR	1	NR
368.056	0.722	SCRIMMAGE	lure	NR	1	NR
368.789	0.373	GLEE	lure	NR	1	NR
369.173	0.594	CALFSKIN	lure	NR	1	NR
369.773	0.548	TWEED	lure	NR	1	NR
370.339	0.318	LACROSSE	lure	NR	1	NR
370.673	0.496	POLARITY	lure	NR	1	NR
371.173	0.543	SYMPTOM	lure	NR	1	NR
371.723	0.712	BARKER	lure	NR	1	NR
372.439	0.505	PAIL	lure	NR	1	NR
372.956	0.709	FIELDER	lure	NR	1	NR
373.673	0.56	EXECUTOR	lure	NR	1	NR
374.239	0.38	NOOK	lure	NR	1	NR
374.623	0.353	RYE	lure	NR	1	NR
374.989	0.724	SERMON	lure	NR	1	NR
375.723	0.259	SAILOR	lure	NR	1	NR
375.989	0.501	PLANNER	lure	NR	1	NR
376.506	2.002	RAIL	long	NR	1	NR
378.606	0.684	STREETCAR	lure	NR	1	NR
379.306	0.568	APOLOGY	lure	NR	1	NR
379.889	0.712	ECOLOGY	lure	NR	1	NR
380.606	0.649	IGNORANCE	lure	NR	1	NR
381.272	0.709	DICE	lure	NR	1	NR
381.989	0.501	VISAGE	lure	NR	1	NR
382.506	1.002	KIWI	fruit	detect	1	587
383.522	0.591	RESURGENCE	lure	NR	1	NR
384.122	0.406	VERSION	lure	NR	1	NR
384.539	0.312	COUNSELLOR	lure	NR	1	NR
384.856	0.525	TENDRIL	lure	NR	1	NR
385.392	0.503	PROMINENCE	lure	NR	1	NR
385.907	0.662	UNIT	lure	NR	1	NR
386.572	0.702	COUNTRYMAN	lure	NR	1	NR
387.289	0.492	TIMEPIECE	lure	NR	1	NR
387.789	0.194	DISTENSION	lure	NR	1	NR
387.989	0.501	VERTEBRAE	lure	NR	1	NR
388.506	0.601	BLIZZARD	short	NR	1	NR
389.122	0.744	LAD	lure	NR	1	NR
389.872	0.491	HOLDUP	lure	NR	1	NR
390.456	0.379	FIGURINE	lure	NR	1	NR
390.839	0.5	GENTLEMEN	lure	NR	1	NR
391.356	0.685	VOCALISM	lure	NR	1	NR
392.056	0.598	PAPA	lure	NR	1	NR
392.656	0.672	MIDSUMMER	lure	NR	1	NR
393.339	0.497	TREASURER	lure	NR	1	NR
393.839	0.497	DICTATOR	lure	NR	1	NR
394.339	0.642	INFINITY	lure	NR	1	NR
394.989	0.652	LAUGHTER	lure	NR	1	NR
395.656	0.327	METEOROID	lure	NR	1	NR
395.989	0.502	LEVITY	lure	NR	1	NR
396.506	0.601	SOAP	short	NR	1	NR
397.122	0.434	MAKER	lure	NR	1	NR
397.572	0.676	BASSINET	lure	NR	1	NR
398.256	0.673	TRAVESTY	lure	NR	1	NR
398.939	0.742	NYLON	lure	NR	1	NR
399.689	0.466	DRAMATIST	lure	NR	1	NR
400.172	0.476	KILOMETER	lure	NR	1	NR
400.656	0.715	FOUNDLING	lure	NR	1	NR
401.389	0.557	CHARCOAL	lure	NR	1	NR
402.039	0.471	COMPOSITOR	lure	NR	1	NR
402.522	0.387	SHOELACE	lure	NR	1	NR
402.922	0.703	TOWNSFOLK	lure	NR	1	NR
403.639	0.345	DEITY	lure	NR	1	NR
403.989	0.501	SURFER	lure	NR	1	NR
404.505	0.602	SIGN	short	NR	1	NR
405.122	0.436	BACKGAMMON	lure	NR	1	NR
405.572	0.458	PENSION	lure	NR	1	NR
406.039	0.413	EDITION	lure	NR	1	NR
406.455	0.443	DEN	lure	NR	1	NR
406.905	0.678	RIDGE	lure	NR	1	NR
407.589	0.334	RHEUMATISM	lure	NR	1	NR
407.939	0.721	CEILING	lure	NR	1	NR
408.672	0.497	ORDEAL	lure	NR	1	NR
409.172	0.469	IMBECILE	lure	NR	1	NR
409.655	0.657	CAPTIVITY	lure	NR	1	NR
410.322	0.745	SOLITAIRE	lure	NR	1	NR
411.072	0.415	SEDITION	lure	NR	1	NR
411.505	0.478	LEADER	lure	NR	1	NR
411.989	0.502	DECORATOR	lure	NR	1	NR
412.572	1.004	RASPBERRY	fruit	detect	1	609
413.589	0.575	PILL	lure	NR	1	NR
414.175	0.489	SEABIRD	lure	NR	1	NR
414.676	0.71	GUNRUNNER	lure	NR	1	NR
415.389	0.629	CROSSBEAM	lure	NR	1	NR
416.022	0.386	CHUMP	lure	NR	1	NR
416.422	0.603	WARMTH	lure	NR	1	NR
417.039	0.391	COMPLIMENT	lure	NR	1	NR
417.439	0.733	PROLOGUE	lure	NR	1	NR
418.189	0.747	LEISURE	lure	NR	1	NR
418.939	1.043	NOBILITY	lure	NR	1	NR
419.989	0.5	HARDCOVER	lure	NR	1	NR
420.505	1.005	GRAPE	fruit	detect	1	587
421.522	0.373	ASSET	lure	NR	1	NR
421.907	0.368	TANNER	lure	NR	1	NR
422.289	0.397	CONQUEST	lure	NR	1	NR
422.689	0.586	JAY	lure	NR	1	NR
423.289	0.447	PROTOTYPE	lure	NR	1	NR
423.739	0.484	BEAUTICIAN	lure	NR	1	NR
424.239	0.393	SAGA	lure	NR	1	NR
424.722	0.402	SANDALWOOD	lure	NR	1	NR
425.139	0.413	JAZZ	lure	NR	1	NR
425.555	0.42	EMERGENCY	lure	NR	1	NR
425.989	0.623	KNUCKLE	lure	NR	1	NR
426.622	0.494	ATOM	lure	NR	1	NR
427.122	0.648	HOROSCOPE	lure	NR	1	NR
427.789	0.195	TELEGRAPHY	lure	NR	1	NR
427.989	0.5	CLOTHESPIN	lure	NR	1	NR
428.505	0.602	PILE	short	NR	1	NR
429.122	0.504	INCISION	lure	NR	1	NR
429.638	0.56	BLACKHEAD	lure	NR	1	NR
430.205	0.476	RELATIVISM	lure	NR	1	NR
430.688	0.467	FELLA	lure	NR	1	NR
431.172	0.683	PAPERBOY	lure	NR	1	NR
431.872	0.544	COACHMAN	lure	NR	1	NR
432.422	0.611	INACTIVITY	lure	NR	1	NR
433.038	0.714	PRETEST	lure	NR	1	NR
433.755	0.523	EPIGRAPH	lure	NR	1	NR
434.288	0.74	PROXY	lure	NR	1	NR
435.04	0.654	SURVIVAL	lure	NR	1	NR
435.788	0.47	FORBEAR	lure	NR	1	NR
436.272	0.597	UNANIMITY	lure	NR	1	NR
436.872	1.111	COLLEAGUE	lure	NR	1	NR
437.988	0.502	MORTUARY	lure	NR	1	NR
438.505	2.001	DEPOT	long	NR	1	NR
440.522	0.492	FEMINISM	lure	NR	1	NR
441.022	0.721	DOORMEN	lure	NR	1	NR
441.755	0.639	LAB	lure	NR	1	NR
442.405	0.687	ABDUCTION	lure	NR	1	NR
443.105	0.499	LABORER	lure	NR	1	NR
443.622	0.494	GLOOM	lure	NR	1	NR
444.122	0.625	BOARDROOM	lure	NR	1	NR
444.755	0.497	FESTIVITY	lure	NR	1	NR
445.255	0.518	EPIPHANY	lure	NR	1	NR
445.788	0.332	CERTAINTY	lure	NR	1	NR
446.138	0.378	SPINACH	lure	NR	1	NR
446.522	0.462	REED	lure	NR	1	NR
446.988	0.357	AVOIDANCE	lure	NR	1	NR
447.355	0.628	POSITIVISM	lure	NR	1	NR
447.988	0.501	GOON	lure	NR	1	NR
448.572	2.002	BASKET	long	NR	1	NR
450.588	0.746	WORKDAY	lure	NR	1	NR
451.338	0.548	SULTAN	lure	NR	1	NR
451.905	0.687	THROTTLE	lure	NR	1	NR
452.605	0.676	SACHET	lure	NR	1	NR
453.288	0.73	WITCHCRAFT	lure	NR	1	NR
454.021	0.695	ADVERT	lure	NR	1	NR
454.721	0.655	ZOOLOGIST	lure	NR	1	NR
455.388	0.433	WOODYARD	lure	NR	1	NR
455.838	0.436	MOTORCADE	lure	NR	1	NR
456.288	0.333	SURNAME	lure	NR	1	NR
456.638	0.415	DISPERSAL	lure	NR	1	NR
457.071	0.564	PLASM	lure	NR	1	NR
457.638	0.344	RIVERSIDE	lure	NR	1	NR
457.988	0.501	VILLAIN	lure	NR	1	NR
458.505	0.601	ANCHOR	short	NR	1	NR
459.121	0.707	PROJECTOR	lure	NR	1	NR
459.838	0.502	SPARSITY	lure	NR	1	NR
460.355	0.329	HELPER	lure	NR	1	NR
460.688	0.311	BARN	lure	NR	1	NR
461.088	0.54	VALIDATION	lure	NR	1	NR
461.638	0.598	NUTCRACKER	lure	NR	1	NR
462.255	0.395	SWATTER	lure	NR	1	NR
462.655	0.698	HOUSEWORK	lure	NR	1	NR
463.371	0.75	GOATSKIN	lure	NR	1	NR
464.138	0.723	RINGMASTER	lure	NR	1	NR
464.871	0.551	EXPIRATION	lure	NR	1	NR
465.438	0.701	SONAR	lure	NR	1	NR
466.155	0.371	MUG	lure	NR	1	NR
466.538	0.4	MILITARISM	lure	NR	1	NR
466.955	0.352	LOOKER	lure	NR	1	NR
467.321	0.66	EYEPIECE	lure	NR	1	NR
467.988	0.502	CRIER	lure	NR	1	NR
468.505	2.002	SPONGE	long	NR	1	NR
470.521	0.462	LEOPARD	lure	NR	1	NR
470.988	0.519	ENCORE	lure	NR	1	NR
471.521	0.541	CLIFF	lure	NR	1	NR
472.071	0.607	TREATY	lure	NR	1	NR
472.688	0.404	DEER	lure	NR	1	NR
473.105	0.392	CONTENT	lure	NR	1	NR
473.588	0.685	PRIMATE	lure	NR	1	NR
474.288	0.52	BRIGADE	lure	NR	1	NR
474.821	0.441	MAINSTAY	lure	NR	1	NR
475.271	0.564	MUSK	lure	NR	1	NR
475.855	0.606	AIRLINE	lure	NR	1	NR
476.471	0.329	ADAPTATION	lure	NR	1	NR
476.805	0.311	OCEANSIDE	lure	NR	1	NR
477.121	0.393	SHAWL	lure	NR	1	NR
477.521	0.343	VOLT	lure	NR	1	NR
477.871	0.655	ROPEWALK	lure	NR	1	NR
478.538	0.341	PRESIDENT	lure	NR	1	NR
478.888	0.334	ASSESSOR	lure	NR	1	NR
479.238	0.569	SAVAGERY	lure	NR	1	NR
479.821	0.387	POPCORN	lure	NR	1	NR
480.221	0.363	SCENE	lure	NR	1	NR
480.588	0.366	CARAMEL	lure	NR	1	NR
480.971	0.501	REDUNDANCY	lure	NR	1	NR
481.488	0.571	THERMOSTAT	lure	NR	1	NR
482.071	0.401	JUDGEMENT	lure	NR	1	NR
482.488	0.42	INNING	lure	NR	1	NR
482.988	0.403	OFFENDER	lure	NR	1	NR
483.404	0.445	PLENITUDE	lure	NR	1	NR
483.854	0.561	CRACKPOT	lure	NR	1	NR
484.421	0.676	THEOLOGY	lure	NR	1	NR
485.104	0.704	COMMITTEE	lure	NR	1	NR
485.821	0.668	ZODIAC	lure	NR	1	NR
486.504	0.536	CORKSCREW	lure	NR	1	NR
487.054	0.549	BONBON	lure	NR	1	NR
487.621	0.705	LAKE	lure	NR	1	NR
488.338	0.592	BELL	lure	NR	1	NR
488.938	0.606	BUFFALO	lure	NR	1	NR
489.555	0.422	LION	lure	NR	1	NR
489.99	0.411	DIVINATION	lure	NR	1	NR