onset	duration	stim	cond	RT	resp	cresp	acc
4.046	0.681017607	HARMONICA	lure	n/a	n/a	n/a	1
4.727	0.599987559	STAPLER	lure	n/a	n/a	n/a	1
5.327	0.733326204	BURGLAR	lure	n/a	n/a	n/a	1
6.061	0.633320324	FUR	lure	n/a	n/a	n/a	1
6.694	0.399998921	HANDBAG	lure	n/a	n/a	n/a	1
7.094	0.749984935	DAYDREAM	lure	n/a	n/a	n/a	1
7.844	0.70000003	BUNT	lure	n/a	n/a	n/a	1
8.544	1.016651448	GRAPEFRUIT	fruit	734	2	2	1
9.561	0.383329119	WISHBONE	lure	n/a	n/a	n/a	1
9.944	0.76665194	HEMLINE	lure	n/a	n/a	n/a	1
10.711	0.383324547	QUANTITY	lure	n/a	n/a	n/a	1
11.094	0.666663881	DIVERGENCE	lure	n/a	n/a	n/a	1
11.761	0.466702966	LACKEY	lure	n/a	n/a	n/a	1
12.227	0.583280882	SLUGGER	lure	n/a	n/a	n/a	1
12.811	0.716654891	LIEUTEn/aT	lure	n/a	n/a	n/a	1
13.527	0.733324467	LIBERTY	lure	n/a	n/a	n/a	1
14.261	0.466652757	EMIGRANT	lure	n/a	n/a	n/a	1
14.727	0.666657521	SHIPBOARD	lure	n/a	n/a	n/a	1
15.394	0.350001982	HABITATION	lure	n/a	n/a	n/a	1
15.744	0.72081948	GOAT	lure	n/a	n/a	n/a	1
16.465	0.745829098	DETERRENCE	lure	n/a	n/a	n/a	1
17.211	0.616658084	TIMBER	short	n/a	n/a	n/a	1
17.827	0.533317296	SPIDER	lure	n/a	n/a	n/a	1
18.361	0.383334049	SANDBANK	lure	n/a	n/a	n/a	1
18.744	0.333322082	TURNIP	lure	n/a	n/a	n/a	1
19.077	0.649992412	CHANTER	lure	n/a	n/a	n/a	1
19.727	0.720830715	MINER	lure	n/a	n/a	n/a	1
20.448	0.362488216	BEACH	lure	n/a	n/a	n/a	1
20.81	0.466666936	PLENITUDE	lure	n/a	n/a	n/a	1
21.277	0.349990444	OPTIMISM	lure	n/a	n/a	n/a	1
21.627	0.616662367	OINTMENT	lure	n/a	n/a	n/a	1
22.244	0.31665706	LINT	lure	n/a	n/a	n/a	1
22.56	0.683323381	SOOTHSAYER	lure	n/a	n/a	n/a	1
23.244	0.633328056	LOBE	lure	n/a	n/a	n/a	1
23.877	0.316657153	TURBULENCE	lure	n/a	n/a	n/a	1
24.194	0.550000965	BUTLER	lure	n/a	n/a	n/a	1
24.744	0.516652365	NIGHTMARE	lure	n/a	n/a	n/a	1
25.26	0.616664233	NAIL	short	n/a	n/a	n/a	1
25.877	0.633318192	NUTHOUSE	lure	n/a	n/a	n/a	1
26.51	0.368736783	MODERNITY	lure	n/a	n/a	n/a	1
26.879	0.564589759	SPREE	lure	n/a	n/a	n/a	1
27.444	0.699983528	VILLAIN	lure	n/a	n/a	n/a	1
28.144	0.683322203	ROBOT	lure	n/a	n/a	n/a	1
28.827	0.549996704	PROSPECT	lure	n/a	n/a	n/a	1
29.377	0.449992228	CARRIAGE	lure	n/a	n/a	n/a	1
29.827	0.483323585	LINEUP	lure	n/a	n/a	n/a	1
30.31	0.433335287	EMPLOYEE	lure	n/a	n/a	n/a	1
30.744	0.749987548	OILMAN	lure	n/a	n/a	n/a	1
31.494	0.566652851	GOAL	lure	n/a	n/a	n/a	1
32.06	0.366664618	INTERLINK	lure	n/a	n/a	n/a	1
32.427	0.583325811	IRRITATION	lure	n/a	n/a	n/a	1
33.01	0.483322528	LENGTH	lure	n/a	n/a	n/a	1
33.494	2.016642869	PITCHFORK	long	n/a	n/a	n/a	1
35.51	0.616654432	SUSPENSION	lure	n/a	n/a	n/a	1
36.127	0.616666856	PROFESSOR	lure	n/a	n/a	n/a	1
36.744	0.616651258	GAGE	lure	n/a	n/a	n/a	1
37.36	0.666663796	LETTUCE	lure	n/a	n/a	n/a	1
38.027	0.349992994	BRAINCHILD	lure	n/a	n/a	n/a	1
38.377	0.333364356	AMBROSIA	lure	n/a	n/a	n/a	1
38.71	0.716616861	FREEMAN	lure	n/a	n/a	n/a	1
39.427	0.416666572	HICKORY	lure	n/a	n/a	n/a	1
39.844	0.599985581	BANDMASTER	lure	n/a	n/a	n/a	1
40.444	0.533329221	LAW	lure	n/a	n/a	n/a	1
40.977	0.599995031	PUDDING	lure	n/a	n/a	n/a	1
41.577	0.766652081	DISK	lure	n/a	n/a	n/a	1
42.344	1.016653917	NECTARINE	fruit	n/a	n/a	2	0
43.36	0.716656337	COLESLAW	lure	n/a	n/a	n/a	1
44.077	0.566655517	TURBINE	lure	n/a	n/a	n/a	1
44.643	0.449991385	HOUSECOAT	lure	n/a	n/a	n/a	1
45.093	0.349999004	EXTENSION	lure	n/a	n/a	n/a	1
45.443	0.43332696	GROVE	lure	n/a	n/a	n/a	1
45.877	0.533323219	STARTER	lure	n/a	n/a	n/a	1
46.41	0.466661823	FOUNDLING	lure	n/a	n/a	n/a	1
46.877	0.633323859	CARVER	lure	n/a	n/a	n/a	1
47.51	0.350001528	BAZOOKA	lure	n/a	n/a	n/a	1
47.86	0.466651428	BETRAYER	lure	n/a	n/a	n/a	1
48.327	0.704396605	CANNON	lure	n/a	n/a	n/a	1
49.031	0.312256798	ATHEISM	lure	n/a	n/a	n/a	1
49.343	0.466702395	LIEU	lure	n/a	n/a	n/a	1
49.81	0.499954857	WAGTAIL	lure	n/a	n/a	n/a	1
50.31	0.616712763	ROOT	short	n/a	n/a	n/a	1
50.927	0.49994171	PILL	lure	n/a	n/a	n/a	1
51.427	0.699988516	WRISTWATCH	lure	n/a	n/a	n/a	1
52.127	0.38332613	PARASOL	lure	n/a	n/a	n/a	1
52.51	0.349993536	BLIMP	lure	n/a	n/a	n/a	1
52.86	0.600034799	MAILBAG	lure	n/a	n/a	n/a	1
53.46	0.449988711	PENINSULA	lure	n/a	n/a	n/a	1
53.91	0.56662254	OUTSIDER	lure	n/a	n/a	n/a	1
54.477	0.716661618	SNOWFLAKE	lure	n/a	n/a	n/a	1
55.193	0.766706895	BLOWOUT	lure	n/a	n/a	n/a	1
55.96	0.566600535	CONGESTION	lure	n/a	n/a	n/a	1
56.527	0.600040199	SUET	lure	n/a	n/a	n/a	1
57.127	0.766613636	SKIER	lure	n/a	n/a	n/a	1
57.893	0.383325082	TOLERANCE	lure	n/a	n/a	n/a	1
58.277	0.651104203	EXPLORER	lure	n/a	n/a	n/a	1
58.928	2.015525362	FOSSIL	long	n/a	n/a	n/a	1
60.943	0.583371278	MACINTOSH	lure	n/a	n/a	n/a	1
61.527	0.349945456	EXPANSION	lure	n/a	n/a	n/a	1
61.877	0.333376938	BUDDY	lure	n/a	n/a	n/a	1
62.21	0.633335103	PLAGIARIST	lure	n/a	n/a	n/a	1
62.843	0.466647481	SETTLER	lure	n/a	n/a	n/a	1
63.31	0.416612353	NOON	lure	n/a	n/a	n/a	1
63.727	0.550001131	BAROMETER	lure	n/a	n/a	n/a	1
64.277	0.666657418	TREE	lure	n/a	n/a	n/a	1
64.943	0.749986545	VARSITY	lure	n/a	n/a	n/a	1
65.693	0.31665668	DOVE	lure	n/a	n/a	n/a	1
66.01	0.733327273	RANCHER	lure	n/a	n/a	n/a	1
66.743	0.683328584	SWEETIE	lure	n/a	n/a	n/a	1
67.427	1.016646781	NECTARINE	fruit	n/a	n/a	2	0
68.443	0.600050107	YEAST	lure	n/a	n/a	n/a	1
69.043	0.533264379	CABINET	lure	n/a	n/a	n/a	1
69.576	0.416668878	REINDEER	lure	n/a	n/a	n/a	1
69.993	0.433366664	LOFT	lure	n/a	n/a	n/a	1
70.427	0.349991062	BOn/aZA	lure	n/a	n/a	n/a	1
70.777	0.583330501	SHIPYARD	lure	n/a	n/a	n/a	1
71.36	0.349954438	FLAGSTONE	lure	n/a	n/a	n/a	1
71.71	0.383369421	INEQUALITY	lure	n/a	n/a	n/a	1
72.093	0.599942362	PLAYGROUND	lure	n/a	n/a	n/a	1
72.693	0.51665929	LISTENER	lure	n/a	n/a	n/a	1
73.21	0.733328077	HORROR	lure	n/a	n/a	n/a	1
73.943	0.516658887	VISITOR	lure	n/a	n/a	n/a	1
74.46	0.499988491	TRILOGY	lure	n/a	n/a	n/a	1
74.96	0.533334276	BICYCLE	lure	n/a	n/a	n/a	1
75.493	0.616659851	NICKEL	short	n/a	n/a	n/a	1
76.11	0.737315136	BARNACLE	lure	n/a	n/a	n/a	1
76.847	0.395995334	BANKER	lure	n/a	n/a	n/a	1
77.243	0.449998532	SUMMERTIME	lure	n/a	n/a	n/a	1
77.693	0.749982026	RECORDER	lure	n/a	n/a	n/a	1
78.443	0.716697942	BRACELET	lure	n/a	n/a	n/a	1
79.16	0.683350635	REGULATION	lure	n/a	n/a	n/a	1
79.843	0.699931859	MOM	lure	n/a	n/a	n/a	1
80.543	0.483316312	SAFETY	lure	n/a	n/a	n/a	1
81.026	0.666657371	TODDLER	lure	n/a	n/a	n/a	1
81.693	0.549992702	DINGO	lure	n/a	n/a	n/a	1
82.243	0.533326433	LIMITATION	lure	n/a	n/a	n/a	1
82.776	0.383336862	TEETH	lure	n/a	n/a	n/a	1
83.16	0.616654054	COFFEE	lure	n/a	n/a	n/a	1
83.776	0.333323734	ADVENTURE	lure	n/a	n/a	n/a	1
84.11	2.016640506	CURB	long	n/a	n/a	n/a	1
86.126	0.63332757	ACCENT	lure	n/a	n/a	n/a	1
86.76	0.449998323	LOLLY	lure	n/a	n/a	n/a	1
87.21	0.349984932	YEARBOOK	lure	n/a	n/a	n/a	1
87.56	0.599994601	BARBARIAN	lure	n/a	n/a	n/a	1
88.16	0.516665426	INTRUSION	lure	n/a	n/a	n/a	1
88.676	0.433325241	SITTER	lure	n/a	n/a	n/a	1
89.11	0.633317982	CESSATION	lure	n/a	n/a	n/a	1
89.743	0.349999063	SOLOIST	lure	n/a	n/a	n/a	1
90.093	0.74998618	BLOWHOLE	lure	n/a	n/a	n/a	1
90.843	0.566661403	CARLOAD	lure	n/a	n/a	n/a	1
91.41	0.549993127	PAINTWORK	lure	n/a	n/a	n/a	1
91.959	0.383325254	LIBERALISM	lure	n/a	n/a	n/a	1
92.343	0.61666005	LENS	short	n/a	n/a	n/a	1
92.959	0.337149002	LUNCHTIME	lure	n/a	n/a	n/a	1
93.297	0.546178782	FOREFINGER	lure	n/a	n/a	n/a	1
93.843	0.483326122	MAINSTREAM	lure	n/a	n/a	n/a	1
94.326	0.316656029	DOWNPOUR	lure	n/a	n/a	n/a	1
94.643	0.349992885	SALINE	lure	n/a	n/a	n/a	1
94.993	0.733330332	FLIGHT	lure	n/a	n/a	n/a	1
95.726	0.3333298	IMMODESTY	lure	n/a	n/a	n/a	1
96.059	0.433322491	OUTHOUSE	lure	n/a	n/a	n/a	1
96.493	0.401765866	FINALITY	lure	n/a	n/a	n/a	1
96.895	0.714886547	NEWSMAN	lure	n/a	n/a	n/a	1
97.609	0.466660114	INITIATOR	lure	n/a	n/a	n/a	1
98.076	0.666657032	WATERCOLOR	lure	n/a	n/a	n/a	1
98.743	0.533320591	FREEWAY	lure	n/a	n/a	n/a	1
99.276	0.516659408	SHOPPER	lure	n/a	n/a	n/a	1
99.793	0.349994976	COALFIELD	lure	n/a	n/a	n/a	1
100.143	0.75073461	KNOLL	lure	n/a	n/a	n/a	1
100.893	2.015899577	PATCH	long	n/a	n/a	n/a	1
102.909	0.450056595	BROTHEL	lure	n/a	n/a	n/a	1
103.359	0.616638872	WRONGDOER	lure	n/a	n/a	n/a	1
103.976	0.449944203	RINGLEADER	lure	n/a	n/a	n/a	1
104.426	0.616658473	HYDRANT	lure	n/a	n/a	n/a	1
105.043	0.350036147	ADAPTER	lure	n/a	n/a	n/a	1
105.393	0.649952789	SESSION	lure	n/a	n/a	n/a	1
106.043	0.599994216	SALTWATER	lure	n/a	n/a	n/a	1
106.643	0.516657311	COWBIRD	lure	n/a	n/a	n/a	1
107.159	0.499995021	GEM	lure	n/a	n/a	n/a	1
107.659	0.749993267	HIPPIE	lure	n/a	n/a	n/a	1
108.409	0.699986391	MEMORY	lure	n/a	n/a	n/a	1
109.109	2.016641192	SKETCH	long	n/a	n/a	n/a	1
111.126	0.450028324	SACRAMENT	lure	n/a	n/a	n/a	1
111.576	0.633325608	GREENHORN	lure	n/a	n/a	n/a	1
112.209	0.616654567	DELL	lure	n/a	n/a	n/a	1
112.826	0.64999426	ANYBODY	lure	n/a	n/a	n/a	1
113.476	0.499994972	DIPLOMA	lure	n/a	n/a	n/a	1
113.976	0.616656242	THEW	lure	n/a	n/a	n/a	1
114.593	0.383326781	MONEYMAKER	lure	n/a	n/a	n/a	1
114.976	0.583292379	SPA	lure	n/a	n/a	n/a	1
115.559	0.433381647	MASCARA	lure	n/a	n/a	n/a	1
115.993	0.333315773	ALLIGATOR	lure	n/a	n/a	n/a	1
116.326	0.316651637	EYESORE	lure	n/a	n/a	n/a	1
116.643	0.483292504	LUGGAGE	lure	n/a	n/a	n/a	1
117.126	0.616659778	BISHOP	lure	n/a	n/a	n/a	1
117.742	0.616654653	APRON	short	n/a	n/a	n/a	1
118.359	0.649993451	PUBLICITY	lure	n/a	n/a	n/a	1
119.009	0.566654372	STAGNATION	lure	n/a	n/a	n/a	1
119.576	0.549998062	ECONOMY	lure	n/a	n/a	n/a	1
120.126	0.733317071	MYTH	lure	n/a	n/a	n/a	1
120.859	0.73338558	TARIFF	lure	n/a	n/a	n/a	1
121.592	0.401607097	SUBVERSION	lure	n/a	n/a	n/a	1
121.994	0.698315363	INDIGO	lure	n/a	n/a	n/a	1
122.692	0.650037662	GRADATION	lure	n/a	n/a	n/a	1
123.342	0.683320948	BUCKSHOT	lure	n/a	n/a	n/a	1
124.026	0.533279611	FLAGELLA	lure	n/a	n/a	n/a	1
124.559	0.33333683	INVENTION	lure	n/a	n/a	n/a	1
124.892	0.716658102	GUESSWORK	lure	n/a	n/a	n/a	1
125.609	0.616653621	ETHNOLOGY	lure	n/a	n/a	n/a	1
126.226	0.616657987	SOAP	short	n/a	n/a	n/a	1
126.842	0.716654147	PERMAFROST	lure	n/a	n/a	n/a	1
127.559	0.533329838	TRADITION	lure	n/a	n/a	n/a	1
128.092	0.499995756	SEA	lure	n/a	n/a	n/a	1
128.592	0.616651913	YESTERYEAR	lure	n/a	n/a	n/a	1
129.209	0.683323453	MEDALLIST	lure	n/a	n/a	n/a	1
129.892	0.399995124	RACQUET	lure	n/a	n/a	n/a	1
130.292	0.749995236	VAPIDITY	lure	n/a	n/a	n/a	1
131.042	0.619373408	GANDER	lure	n/a	n/a	n/a	1
131.662	0.647276062	CRESCENT	lure	n/a	n/a	n/a	1
132.309	0.36665499	BANISHMENT	lure	n/a	n/a	n/a	1
132.676	0.599993199	BROCCOLI	lure	n/a	n/a	n/a	1
133.276	0.533322876	HILARITY	lure	n/a	n/a	n/a	1
133.809	0.516660298	NITRATE	lure	n/a	n/a	n/a	1
134.326	1.016657269	MANGO	fruit	n/a	n/a	2	0
135.342	0.566656798	GURU	lure	176	2	n/a	0
135.909	0.333375961	MONTH	lure	n/a	n/a	n/a	1
136.242	0.733330285	COLORATION	lure	n/a	n/a	n/a	1
136.976	0.733270569	MATCHBOX	lure	n/a	n/a	n/a	1
137.709	0.683323742	AFFLUENCE	lure	n/a	n/a	n/a	1
138.392	0.533361045	MORALE	lure	n/a	n/a	n/a	1
138.926	0.683378355	DIPLOMACY	lure	n/a	n/a	n/a	1
139.609	0.516612587	INHIBITION	lure	n/a	n/a	n/a	1
140.126	0.516610137	BRAIN	lure	n/a	n/a	n/a	1
140.642	0.533367567	ACTIVISM	lure	n/a	n/a	n/a	1
141.176	0.449996552	NUMEROLOGY	lure	n/a	n/a	n/a	1
141.626	0.499954031	INCAPACITY	lure	n/a	n/a	n/a	1
142.125	0.333329065	SUNSPOT	lure	n/a	n/a	n/a	1
142.459	2.016641983	PLANK	long	n/a	n/a	n/a	1
144.475	0.599991536	MULE	lure	n/a	n/a	n/a	1
145.075	0.449994004	DEPLETION	lure	n/a	n/a	n/a	1
145.525	0.733318452	VIRTUOSITY	lure	n/a	n/a	n/a	1
146.259	0.666660489	MANHOOD	lure	n/a	n/a	n/a	1
146.925	0.583325581	GOALKEEPER	lure	n/a	n/a	n/a	1
147.509	0.366652932	CAMEO	lure	n/a	n/a	n/a	1
147.875	0.700041554	COTTAGE	lure	n/a	n/a	n/a	1
148.575	0.499949581	RECLUSE	lure	n/a	n/a	n/a	1
149.075	0.766656996	CRACKDOWN	lure	n/a	n/a	n/a	1
149.842	0.553442632	ENTROPY	lure	n/a	n/a	n/a	1
150.395	0.596540765	GREYBEARD	lure	n/a	n/a	n/a	1
150.992	0.61665254	TRUCK	short	n/a	n/a	n/a	1
151.609	0.483329312	EARPIECE	lure	n/a	n/a	n/a	1
152.092	0.566694068	PASTRAMI	lure	n/a	n/a	n/a	1
152.659	0.466620086	UPTURN	lure	n/a	n/a	n/a	1
153.125	0.416706019	ROOSTER	lure	n/a	n/a	n/a	1
153.542	0.570358569	ESPRESSO	lure	n/a	n/a	n/a	1
154.112	0.562919716	THIEVERY	lure	n/a	n/a	n/a	1
154.675	0.416654757	DEFERENCE	lure	n/a	n/a	n/a	1
155.092	0.383327463	PLANET	lure	n/a	n/a	n/a	1
155.475	0.416661475	DOSAGE	lure	n/a	n/a	n/a	1
155.892	0.450054175	DEFICIENCY	lure	n/a	n/a	n/a	1
156.342	0.533269446	PARSONAGE	lure	n/a	n/a	n/a	1
156.875	0.383323776	DIAMETER	lure	n/a	n/a	n/a	1
157.259	0.387691975	CLAPBOARD	lure	n/a	n/a	n/a	1
157.646	0.662294603	LATECOMER	lure	n/a	n/a	n/a	1
158.309	0.600043513	CALCULATOR	lure	n/a	n/a	n/a	1
158.909	0.716612164	BRUTALITY	lure	n/a	n/a	n/a	1
159.625	2.016636348	LEAF	long	n/a	n/a	n/a	1
161.642	0.566657659	CATCHER	lure	n/a	n/a	n/a	1
162.209	0.316659851	CADET	lure	n/a	n/a	n/a	1
162.525	0.333326006	DEADLINE	lure	n/a	n/a	n/a	1
162.859	0.416722976	SANDER	lure	n/a	n/a	n/a	1
163.275	0.666602579	VARIETY	lure	n/a	n/a	n/a	1
163.942	0.666652348	BREAD	lure	n/a	n/a	n/a	1
164.608	0.499997768	CROUTON	lure	n/a	n/a	n/a	1
165.108	0.349997165	XYLOPHONE	lure	n/a	n/a	n/a	1
165.458	0.316653324	FORE	lure	n/a	n/a	n/a	1
165.775	0.383380777	ACCOUNTANT	lure	n/a	n/a	n/a	1
166.159	0.433277112	DARLING	lure	n/a	n/a	n/a	1
166.592	0.516657161	NIGHTLINE	lure	n/a	n/a	n/a	1
167.108	0.70441811	PERMEATION	lure	n/a	n/a	n/a	1
167.813	0.462236425	CABIN	lure	n/a	n/a	n/a	1
168.275	0.616656098	PENNY	short	n/a	n/a	n/a	1
168.892	0.533376378	CONTEXT	lure	n/a	n/a	n/a	1
169.425	0.649940479	RAMPART	lure	n/a	n/a	n/a	1
170.075	0.433332421	ALLEGIANCE	lure	n/a	n/a	n/a	1
170.508	0.616657897	SUBSIDENCE	lure	n/a	n/a	n/a	1
171.125	0.618258782	BLOTCH	lure	n/a	n/a	n/a	1
171.743	0.398395619	EXPENSE	lure	n/a	n/a	n/a	1
172.142	0.416653986	STEAD	lure	n/a	n/a	n/a	1
172.558	0.599989884	INFORMER	lure	n/a	n/a	n/a	1
173.158	0.516717665	TRAVESTY	lure	n/a	n/a	n/a	1
173.675	0.433275634	SIDESHOW	lure	n/a	n/a	n/a	1
174.108	0.466653867	TWEED	lure	n/a	n/a	n/a	1
174.575	0.666662809	DILIGENCE	lure	n/a	n/a	n/a	1
175.242	0.466653858	HAZE	lure	n/a	n/a	n/a	1
175.708	0.400002203	POLYGAMY	lure	n/a	n/a	n/a	1
176.108	0.383328896	BEHAVIOR	lure	n/a	n/a	n/a	1
176.492	2.016633864	TIRE	long	n/a	n/a	n/a	1
178.508	0.58332177	MAYOR	lure	n/a	n/a	n/a	1
179.092	0.366660844	COMMUNISM	lure	n/a	n/a	n/a	1
179.458	0.650051122	RATTLER	lure	n/a	n/a	n/a	1
180.108	0.749929477	COCHLEA	lure	n/a	n/a	n/a	1
180.858	0.683325468	REBUTTAL	lure	n/a	n/a	n/a	1
181.542	0.433331558	SCOURGE	lure	n/a	n/a	n/a	1
181.975	0.666661031	GUERRILLA	lure	n/a	n/a	n/a	1
182.642	0.599988473	ANALOGY	lure	n/a	n/a	n/a	1
183.242	0.333323604	MAYHEM	lure	n/a	n/a	n/a	1
183.575	0.400000998	WATERMARK	lure	n/a	n/a	n/a	1
183.975	0.699983814	PRIVILEGE	lure	n/a	n/a	n/a	1
184.675	0.61666563	MATTRESS	short	n/a	n/a	n/a	1
185.292	0.399991938	STICKER	lure	n/a	n/a	n/a	1
185.692	0.58331896	STILT	lure	n/a	n/a	n/a	1
186.275	0.716663629	PEDIGREE	lure	n/a	n/a	n/a	1
186.992	0.566652303	APOTHECARY	lure	n/a	n/a	n/a	1
187.558	0.699996384	SKYSCRAPER	lure	n/a	n/a	n/a	1
188.258	0.316655608	STONEWORK	lure	n/a	n/a	n/a	1
188.575	0.366669694	CONGRUITY	lure	n/a	n/a	n/a	1
188.941	0.366662315	DETECTION	lure	n/a	n/a	n/a	1
189.308	0.666655494	HEADREST	lure	n/a	n/a	n/a	1
189.975	0.333321849	ADDITION	lure	n/a	n/a	n/a	1
190.308	0.433333958	COBBLER	lure	n/a	n/a	n/a	1
190.741	0.602027049	SOFTENER	lure	n/a	n/a	n/a	1
191.343	0.714616251	SWIMSUIT	lure	n/a	n/a	n/a	1
192.058	0.4499923	KARMA	lure	n/a	n/a	n/a	1
192.508	2.016641408	RAKE	long	n/a	n/a	n/a	1
194.525	0.64999518	ARRIVAL	lure	n/a	n/a	n/a	1
195.175	0.399987753	SHANTYTOWN	lure	n/a	n/a	n/a	1
195.575	0.649990789	CUPFUL	lure	n/a	n/a	n/a	1
196.225	0.333335027	HONEYDEW	lure	n/a	n/a	n/a	1
196.558	0.399994867	PAGEANT	lure	n/a	n/a	n/a	1
196.958	0.799990082	FOLDER	lure	n/a	n/a	n/a	1
197.758	0.416666146	VESSEL	lure	n/a	n/a	n/a	1
198.175	0.683310286	WEAVER	lure	n/a	n/a	n/a	1
198.858	0.71665716	WAND	lure	n/a	n/a	n/a	1
199.575	0.48333461	YAM	lure	n/a	n/a	n/a	1
200.058	0.599990888	INNOVATOR	lure	n/a	n/a	n/a	1
200.658	2.016639654	CONTRACT	long	n/a	n/a	n/a	1
202.675	0.716651531	GUILT	lure	n/a	n/a	n/a	1
203.391	0.566658485	GOWN	lure	n/a	n/a	n/a	1
203.958	0.366667979	PRIESTHOOD	lure	n/a	n/a	n/a	1
204.325	0.366656212	ROULETTE	lure	n/a	n/a	n/a	1
204.691	0.499995967	EAR	lure	n/a	n/a	n/a	1
205.191	0.435174873	TONIC	lure	n/a	n/a	n/a	1
205.626	0.398142647	FRESHMAN	lure	n/a	n/a	n/a	1
206.025	0.333333787	BARKEEP	lure	n/a	n/a	n/a	1
206.358	0.449989165	KNOBBY	lure	n/a	n/a	n/a	1
206.808	0.316662441	SNAPPER	lure	n/a	n/a	n/a	1
207.125	0.43333097	ANOREXIA	lure	n/a	n/a	n/a	1
207.558	0.666659091	ETIQUETTE	lure	n/a	n/a	n/a	1
208.225	0.399987194	BELLFLOWER	lure	n/a	n/a	n/a	1
208.625	0.766657659	DOWNING	lure	n/a	n/a	n/a	1
209.391	1.016653895	WATERMELON	fruit	735	2	2	1
210.408	0.449990999	SPOTLIGHT	lure	n/a	n/a	n/a	1
210.858	0.333368843	FRACTURE	lure	n/a	n/a	n/a	1
211.191	0.349956184	FIREFLY	lure	n/a	n/a	n/a	1
211.541	0.483325309	SCAPULA	lure	n/a	n/a	n/a	1
212.024	0.583327795	PINT	lure	n/a	n/a	n/a	1
212.608	0.683325228	RECEPTION	lure	n/a	n/a	n/a	1
213.291	0.516655442	FERTILITY	lure	n/a	n/a	n/a	1
213.808	0.616658818	GOATEE	lure	n/a	n/a	n/a	1
214.424	0.533327183	TOURISM	lure	n/a	n/a	n/a	1
214.958	0.566663908	BOWMAN	lure	n/a	n/a	n/a	1
215.524	0.749982508	PARLOR	lure	n/a	n/a	n/a	1
216.274	0.566663651	DISCLAIMER	lure	n/a	n/a	n/a	1
216.841	0.550036075	GLYCEROL	lure	n/a	n/a	n/a	1
217.391	0.333278481	BOATHOUSE	lure	n/a	n/a	n/a	1
217.724	1.016655928	KIWI	fruit	737	2	2	1
218.741	0.420404674	JACKPOT	lure	n/a	n/a	n/a	1
219.161	0.762917269	PAYCHECK	lure	n/a	n/a	n/a	1
219.924	0.716657904	SATURATION	lure	n/a	n/a	n/a	1
220.641	0.433320587	HAT	lure	n/a	n/a	n/a	1
221.074	0.433333792	PRECEDENCE	lure	n/a	n/a	n/a	1
221.508	0.366655203	DEBTOR	lure	n/a	n/a	n/a	1
221.874	0.43332782	PINSTRIPE	lure	n/a	n/a	n/a	1
222.308	0.383331554	HEARTH	lure	n/a	n/a	n/a	1
222.691	0.749986815	ASSORTMENT	lure	n/a	n/a	n/a	1
223.441	0.499992365	WARHORSE	lure	n/a	n/a	n/a	1
223.941	0.483333022	STERLING	lure	n/a	n/a	n/a	1
224.424	0.599985062	ALTO	lure	n/a	n/a	n/a	1
225.024	0.633329624	LIFELINE	lure	n/a	n/a	n/a	1
225.658	0.566653233	AVOIDANCE	lure	n/a	n/a	n/a	1
226.224	0.483369313	CAESAREAN	lure	n/a	n/a	n/a	1
226.708	n/a	CHARGER	lure	n/a	n/a	n/a	1
238.024	0.633327265	DISSOn/aCE	lure	n/a	n/a	n/a	1
238.657	0.466662921	BILLFOLD	lure	n/a	n/a	n/a	1
239.124	0.399991686	WINGER	lure	n/a	n/a	n/a	1
239.524	0.500030801	CANDIDACY	lure	n/a	n/a	n/a	1
240.024	0.516618093	VALET	lure	n/a	n/a	n/a	1
240.541	0.549994871	LITIGATION	lure	n/a	n/a	n/a	1
241.091	0.383330489	RACER	lure	n/a	n/a	n/a	1
241.474	0.616659998	TIMBER	short	n/a	n/a	n/a	1
242.091	0.749987055	MINISTRY	lure	n/a	n/a	n/a	1
242.841	0.633377116	STRAW	lure	n/a	n/a	n/a	1
243.474	0.466609895	BEATER	lure	n/a	n/a	n/a	1
243.941	0.504307878	TOMAHAWK	lure	n/a	n/a	n/a	1
244.445	0.479008959	QUESTIONER	lure	n/a	n/a	n/a	1
244.924	0.649992181	MUSK	lure	n/a	n/a	n/a	1
245.574	0.516652846	ORPHANAGE	lure	n/a	n/a	n/a	1
246.091	0.549997477	PRECAUTION	lure	n/a	n/a	n/a	1
246.641	0.316658875	CAT	lure	n/a	n/a	n/a	1
246.957	0.451021047	WHIMSEY	lure	n/a	n/a	n/a	1
247.408	0.698967745	IMITATION	lure	n/a	n/a	n/a	1
248.107	0.749989519	PIKE	lure	n/a	n/a	n/a	1
248.857	0.599986813	PRESENCE	lure	n/a	n/a	n/a	1
249.457	0.566657001	DEDICATION	lure	n/a	n/a	n/a	1
250.024	0.616664655	PENNY	short	n/a	n/a	n/a	1
250.641	0.466655346	BOARDER	lure	n/a	n/a	n/a	1
251.107	0.349995558	RIDER	lure	n/a	n/a	n/a	1
251.457	0.349994409	UNDERWOOD	lure	n/a	n/a	n/a	1
251.807	0.499999133	DOCILITY	lure	n/a	n/a	n/a	1
252.307	0.483370295	BROILER	lure	n/a	n/a	n/a	1
252.791	0.333340586	SOAPBOX	lure	n/a	n/a	n/a	1
253.124	0.500021438	TROUSER	lure	n/a	n/a	n/a	1
253.624	0.449945375	TRIBUTARY	lure	n/a	n/a	n/a	1
254.074	0.466616511	VULGARITY	lure	n/a	n/a	n/a	1
254.541	0.750033131	WALKER	lure	n/a	n/a	n/a	1
255.291	0.516620619	ESCAPEE	lure	n/a	n/a	n/a	1
255.807	0.416658874	COMET	lure	n/a	n/a	n/a	1
256.224	0.51666572	ADVISEMENT	lure	n/a	n/a	n/a	1
256.741	0.586398359	RESENTMENT	lure	n/a	n/a	n/a	1
257.327	0.363587659	DRAGONFLY	lure	n/a	n/a	n/a	1
257.691	0.399989129	CONCAVITY	lure	n/a	n/a	n/a	1
258.091	1.049989696	CRANBERRY	fruit	652	2	2	1
259.141	0.683317932	TIDEWAY	lure	n/a	n/a	n/a	1
259.824	0.666660872	COLE	lure	n/a	n/a	n/a	1
260.49	0.666660288	DEBT	lure	n/a	n/a	n/a	1
261.157	0.749985412	LIMOUSINE	lure	n/a	n/a	n/a	1
261.907	0.333333581	WORKROOM	lure	n/a	n/a	n/a	1
262.24	0.483322661	INDUCEMENT	lure	n/a	n/a	n/a	1
262.724	0.349993616	AURORA	lure	n/a	n/a	n/a	1
263.074	0.566663493	SPINDLE	lure	n/a	n/a	n/a	1
263.64	0.333324093	SALIVATION	lure	n/a	n/a	n/a	1
263.974	0.716661047	LIBERATION	lure	n/a	n/a	n/a	1
264.69	0.316657749	FINISHER	lure	n/a	n/a	n/a	1
265.007	0.699994233	BRUNT	lure	n/a	n/a	n/a	1
265.707	0.383328462	MILLIMETER	lure	n/a	n/a	n/a	1
266.09	1.021333944	PEACH	fruit	892	2	2	1
267.112	0.395315455	SYMBOLISM	lure	n/a	n/a	n/a	1
267.507	0.516657224	PURIST	lure	n/a	n/a	n/a	1
268.024	0.433328429	SPECTRA	lure	n/a	n/a	n/a	1
268.457	0.333321469	CHASTITY	lure	n/a	n/a	n/a	1
268.79	0.533335361	STOREHOUSE	lure	n/a	n/a	n/a	1
269.324	0.683319731	ACETATE	lure	n/a	n/a	n/a	1
270.007	0.666654087	ROWBOAT	lure	n/a	n/a	n/a	1
270.674	0.333327849	BALSAM	lure	n/a	n/a	n/a	1
271.007	0.533330757	SANITY	lure	n/a	n/a	n/a	1
271.54	0.683324157	ANTENNA	lure	n/a	n/a	n/a	1
272.224	0.499985946	CAREERISM	lure	n/a	n/a	n/a	1
272.724	0.58332789	EMBARGO	lure	n/a	n/a	n/a	1
273.307	0.616656387	AIRWAY	lure	n/a	n/a	n/a	1
273.924	0.716658423	PONYTAIL	lure	n/a	n/a	n/a	1
274.64	2.016638443	SKETCH	long	n/a	n/a	n/a	1
276.657	0.599993639	MARL	lure	n/a	n/a	n/a	1
277.257	0.350974732	DEBASEMENT	lure	n/a	n/a	n/a	1
277.608	0.432351063	PUCK	lure	n/a	n/a	n/a	1
278.04	0.416661404	REMOVAL	lure	n/a	n/a	n/a	1
278.457	0.666655804	LONER	lure	n/a	n/a	n/a	1
279.124	0.566651702	DENSITY	lure	n/a	n/a	n/a	1
279.69	0.349995105	EXPANSE	lure	n/a	n/a	n/a	1
280.04	0.649995064	FIREBUG	lure	n/a	n/a	n/a	1
280.69	0.333325159	POODLE	lure	n/a	n/a	n/a	1
281.024	0.416665721	DYNASTY	lure	n/a	n/a	n/a	1
281.44	0.699987394	MERIDIAN	lure	n/a	n/a	n/a	1
282.14	0.499992919	FACADE	lure	n/a	n/a	n/a	1
282.64	2.016642717	RAKE	long	n/a	n/a	n/a	1
284.657	0.649987175	PUPPETEER	lure	n/a	n/a	n/a	1
285.307	0.716663349	SCRIPTURE	lure	n/a	n/a	n/a	1
286.023	0.549992544	NOTHING	lure	n/a	n/a	n/a	1
286.573	0.549983442	PIGLET	lure	n/a	n/a	n/a	1
287.123	0.404476244	LAKE	lure	n/a	n/a	n/a	1
287.528	0.581562656	PRECISION	lure	n/a	n/a	n/a	1
288.109	0.663942325	DIAMOND	lure	n/a	n/a	n/a	1
288.773	0.499995114	VANE	lure	n/a	n/a	n/a	1
289.273	0.583321257	STATESMEN	lure	n/a	n/a	n/a	1
289.857	0.499992775	DEACON	lure	n/a	n/a	n/a	1
290.357	0.633324882	BACHELOR	lure	n/a	n/a	n/a	1
290.99	0.616661646	MATTRESS	short	n/a	n/a	n/a	1
291.607	0.466661813	ITEM	lure	n/a	n/a	n/a	1
292.073	0.699989721	RETRIAL	lure	n/a	n/a	n/a	1
292.773	0.466659619	DAME	lure	n/a	n/a	n/a	1
293.24	0.650024466	JUG	lure	n/a	n/a	n/a	1
293.89	0.466626315	SCRAPER	lure	n/a	n/a	n/a	1
294.357	0.583322471	WOE	lure	n/a	n/a	n/a	1
294.94	0.669290406	REALTY	lure	n/a	n/a	n/a	1
295.609	0.580689776	BLANKET	lure	n/a	n/a	n/a	1
296.19	0.699994007	HELLCAT	lure	n/a	n/a	n/a	1
296.89	0.349996308	VANTAGE	lure	n/a	n/a	n/a	1
297.24	0.733324236	CHILI	lure	n/a	n/a	n/a	1
297.973	0.333323473	FARMYARD	lure	n/a	n/a	n/a	1
298.307	0.349997947	BLOWGUN	lure	n/a	n/a	n/a	1
298.657	0.733318582	SPECTACLE	lure	n/a	n/a	n/a	1
299.39	0.616664054	NAIL	short	n/a	n/a	n/a	1
300.007	0.633320468	BUFFALO	lure	n/a	n/a	n/a	1
300.64	0.366703572	POTENCY	lure	n/a	n/a	n/a	1
301.007	0.749950541	PENGUIN	lure	n/a	n/a	n/a	1
301.757	0.450039625	BALLOONIST	lure	n/a	n/a	n/a	1
302.207	0.666611103	GODSPEED	lure	n/a	n/a	n/a	1
302.873	0.616656225	MANGER	lure	n/a	n/a	n/a	1
303.49	0.499990517	YONDER	lure	n/a	n/a	n/a	1
303.99	0.633329024	SUBTYPE	lure	n/a	n/a	n/a	1
304.623	0.49999564	DILEMMA	lure	n/a	n/a	n/a	1
305.123	0.683323701	UPPERCUT	lure	n/a	n/a	n/a	1
305.807	0.533321236	SUPERSTAR	lure	n/a	n/a	n/a	1
306.34	0.616700159	PROVIDENT	lure	n/a	n/a	n/a	1
306.957	0.516624513	MASON	lure	n/a	n/a	n/a	1
307.473	1.01668634	NECTARINE	fruit	965	2	2	1
308.49	0.701705003	ARCADE	lure	n/a	n/a	n/a	1
309.192	0.448244412	EMBROIDERY	lure	n/a	n/a	n/a	1
309.64	0.583317553	TUBE	lure	n/a	n/a	n/a	1
310.223	0.533328132	HALO	lure	n/a	n/a	n/a	1
310.756	0.583324293	CANAL	lure	n/a	n/a	n/a	1
311.34	0.616664867	COWBOY	lure	n/a	n/a	n/a	1
311.956	0.633369301	PHARMACY	lure	n/a	n/a	n/a	1
312.59	0.569219324	BRUSHFIRE	lure	n/a	n/a	n/a	1
313.159	0.580716981	TUMBLEWEED	lure	n/a	n/a	n/a	1
313.74	0.499989039	RESISTANCE	lure	n/a	n/a	n/a	1
314.24	0.683329932	ILLEGALITY	lure	n/a	n/a	n/a	1
314.923	0.49998653	HANDBOOK	lure	n/a	n/a	n/a	1
315.423	2.016641664	PITCHFORK	long	n/a	n/a	n/a	1
317.44	0.749988185	SELF	lure	n/a	n/a	n/a	1
318.19	0.733327944	BETRAYAL	lure	n/a	n/a	n/a	1
318.923	0.349994947	BEHOLDER	lure	n/a	n/a	n/a	1
319.273	0.483321671	ABERRATION	lure	n/a	n/a	n/a	1
319.756	0.766659874	CALLER	lure	n/a	n/a	n/a	1
320.523	0.58337982	PINKIE	lure	n/a	n/a	n/a	1
321.106	0.64998168	SOLILOQUY	lure	n/a	n/a	n/a	1
321.756	0.433317551	VINE	lure	n/a	n/a	n/a	1
322.19	0.533292246	CREMATION	lure	n/a	n/a	n/a	1
322.723	0.733366642	CANDOR	lure	n/a	n/a	n/a	1
323.456	0.566608827	INSPECTOR	lure	n/a	n/a	n/a	1
324.023	2.01663977	TIRE	long	n/a	n/a	n/a	1
326.04	0.404434545	TELLER	lure	n/a	n/a	n/a	1
326.444	0.628887348	TALCUM	lure	n/a	n/a	n/a	1
327.073	0.566711917	CESSION	lure	n/a	n/a	n/a	1
327.64	0.683266681	RUBELLA	lure	n/a	n/a	n/a	1
328.323	0.683372254	FOOTAGE	lure	n/a	n/a	n/a	1
329.006	0.616648995	REDHEAD	lure	n/a	n/a	n/a	1
329.623	0.649952383	HANDSHAKE	lure	n/a	n/a	n/a	1
330.273	0.666654838	PICKUP	lure	n/a	n/a	n/a	1
330.94	0.516660705	GUST	lure	n/a	n/a	n/a	1
331.456	0.569392746	HIGHSCHOOL	lure	n/a	n/a	n/a	1
332.026	0.330594979	DOORMAN	lure	n/a	n/a	n/a	1
332.356	2.049977023	FOSSIL	long	n/a	n/a	n/a	1
334.406	0.450029704	WORKINGMEN	lure	n/a	n/a	n/a	1
334.856	0.416617962	NEWSSTAND	lure	n/a	n/a	n/a	1
335.273	0.333328743	SUNDOWN	lure	n/a	n/a	n/a	1
335.606	0.450002749	TOBACCO	lure	n/a	n/a	n/a	1
336.056	0.383321175	GARGOYLE	lure	n/a	n/a	n/a	1
336.439	0.500044486	DRUMBEAT	lure	n/a	n/a	n/a	1
336.939	0.599947088	HANDSTAND	lure	n/a	n/a	n/a	1
337.539	0.699988821	OPTIMALITY	lure	n/a	n/a	n/a	1
338.239	0.466661466	ROLE	lure	n/a	n/a	n/a	1
338.706	0.766649471	LIPSTICK	lure	n/a	n/a	n/a	1
339.473	0.433325543	BATH	lure	n/a	n/a	n/a	1
339.906	0.433327132	PERFORMER	lure	n/a	n/a	n/a	1
340.339	0.616664462	LENS	short	n/a	n/a	n/a	1
340.956	0.650027691	UNTRUTH	lure	n/a	n/a	n/a	1
341.606	0.366668593	BURIAL	lure	n/a	n/a	n/a	1
341.973	0.649948107	ARTIFACT	lure	n/a	n/a	n/a	1
342.623	0.699985448	POOCH	lure	n/a	n/a	n/a	1
343.323	0.699987662	ALGORITHM	lure	n/a	n/a	n/a	1
344.023	0.383328126	COALITION	lure	n/a	n/a	n/a	1
344.406	0.483333246	FIELDWORK	lure	n/a	n/a	n/a	1
344.889	0.683323601	VENTURER	lure	n/a	n/a	n/a	1
345.573	0.549986256	CRICKET	lure	n/a	n/a	n/a	1
346.123	0.666660067	CLOTH	lure	n/a	n/a	n/a	1
346.789	0.683330494	MILITANCY	lure	n/a	n/a	n/a	1
347.473	0.36672139	UNDERTAKER	lure	n/a	n/a	n/a	1
347.839	0.633262492	GERANIUM	lure	n/a	n/a	n/a	1
348.473	0.583360808	SPEAKER	lure	n/a	n/a	n/a	1
349.056	0.61662156	ROOT	short	n/a	n/a	n/a	1
349.673	0.433373257	ORGANIZER	lure	n/a	n/a	n/a	1
350.106	0.749942043	PLEA	lure	n/a	n/a	n/a	1
350.856	0.466661125	SCARF	lure	n/a	n/a	n/a	1
351.323	0.516658407	MOVER	lure	n/a	n/a	n/a	1
351.839	0.516655244	MIDNIGHT	lure	n/a	n/a	n/a	1
352.356	0.500021767	BERK	lure	n/a	n/a	n/a	1
352.856	0.599971055	OVERDRAFT	lure	n/a	n/a	n/a	1
353.456	0.466657689	BOOKCLUB	lure	n/a	n/a	n/a	1
353.923	0.635144453	DICTION	lure	n/a	n/a	n/a	1
354.558	0.314878904	CUTBACK	lure	n/a	n/a	n/a	1
354.873	0.666660158	DETRACTOR	lure	n/a	n/a	n/a	1
355.539	0.416623499	CEDAR	lure	n/a	n/a	n/a	1
355.956	0.61665441	PROBATE	lure	n/a	n/a	n/a	1
356.572	0.633329371	VIGOR	lure	n/a	n/a	n/a	1
357.206	0.683319834	QUICKSTEP	lure	n/a	n/a	n/a	1
357.889	0.616661808	TRUCK	short	n/a	n/a	n/a	1
358.506	0.566656589	SAMPLER	lure	n/a	n/a	n/a	1
359.072	0.383324588	MUSKET	lure	n/a	n/a	n/a	1
359.456	0.466658451	VOLT	lure	n/a	n/a	n/a	1
359.922	0.499993075	IGUANA	lure	n/a	n/a	n/a	1
360.422	0.533332212	LINEMEN	lure	n/a	n/a	n/a	1
360.956	0.599988553	COGNAC	lure	n/a	n/a	n/a	1
361.556	0.533326203	BISON	lure	n/a	n/a	n/a	1
362.089	0.349999073	PROSECUTOR	lure	n/a	n/a	n/a	1
362.439	0.549988031	REPUTE	lure	n/a	n/a	n/a	1
362.989	0.666701454	HEADLINE	lure	n/a	n/a	n/a	1
363.656	0.383284022	SINKHOLE	lure	n/a	n/a	n/a	1
364.039	0.533362637	FRENZY	lure	n/a	n/a	n/a	1
364.572	0.383291229	RAILHEAD	lure	n/a	n/a	n/a	1
364.956	0.699992875	STOKER	lure	n/a	n/a	n/a	1
365.656	0.399990968	CORD	lure	n/a	n/a	n/a	1
366.056	2.049971991	LEAF	long	n/a	n/a	n/a	1
368.106	0.53337876	MEMORIAL	lure	n/a	n/a	n/a	1
368.639	0.316608553	SIMULATOR	lure	n/a	n/a	n/a	1
368.956	0.749988511	CONCEPT	lure	n/a	n/a	n/a	1
369.706	0.483328877	LADING	lure	n/a	n/a	n/a	1
370.189	0.500033096	TECH	lure	n/a	n/a	n/a	1
370.689	0.449958691	DISPARITY	lure	n/a	n/a	n/a	1
371.139	0.716655984	ALTRUISM	lure	n/a	n/a	n/a	1
371.856	0.599985265	MAT	lure	n/a	n/a	n/a	1
372.456	0.38333215	MOGUL	lure	n/a	n/a	n/a	1
372.839	0.666656207	DISSIDENCE	lure	n/a	n/a	n/a	1
373.506	0.333325616	NUTRIENT	lure	n/a	n/a	n/a	1
373.839	1.018491372	KIWI	fruit	879	2	2	1
374.857	0.598158131	DIFFICULTY	lure	n/a	n/a	n/a	1
375.456	0.599993249	HOMESTEAD	lure	n/a	n/a	n/a	1
376.056	0.416655209	MACHINIST	lure	n/a	n/a	n/a	1
376.472	0.466666007	MANNER	lure	n/a	n/a	n/a	1
376.939	0.633318898	VENTILATOR	lure	n/a	n/a	n/a	1
377.572	0.449991939	PATRONAGE	lure	n/a	n/a	n/a	1
378.022	0.753119456	DIVISION	lure	n/a	n/a	n/a	1
378.775	0.430203573	ASTRONOMY	lure	n/a	n/a	n/a	1
379.206	0.720930052	TRADER	lure	n/a	n/a	n/a	1
379.926	0.445722821	PURSUER	lure	n/a	n/a	n/a	1
380.372	0.61664887	ROADBED	lure	n/a	n/a	n/a	1
380.989	0.533334307	METRO	lure	n/a	n/a	n/a	1
381.522	0.483324335	CHARIOT	lure	n/a	n/a	n/a	1
382.005	1.016647143	CRANBERRY	fruit	769	2	2	1
383.022	0.402225833	HAYFORK	lure	n/a	n/a	n/a	1
383.424	0.418559464	CHALICE	lure	n/a	n/a	n/a	1
383.843	0.679195958	DICTATION	lure	n/a	n/a	n/a	1
384.522	0.416662581	BIRDIE	lure	n/a	n/a	n/a	1
384.939	0.46665578	INCURSION	lure	n/a	n/a	n/a	1
385.405	0.449993897	PLATTER	lure	n/a	n/a	n/a	1
385.855	0.683326981	OBLIVION	lure	n/a	n/a	n/a	1
386.539	0.333325569	EYELINER	lure	n/a	n/a	n/a	1
386.872	0.533333848	TERRITORY	lure	n/a	n/a	n/a	1
387.405	0.416661306	INEPTITUDE	lure	n/a	n/a	n/a	1
387.822	0.54999091	CORDUROY	lure	n/a	n/a	n/a	1
388.372	0.63331781	CRITTER	lure	n/a	n/a	n/a	1
389.005	0.549992331	INIQUITY	lure	n/a	n/a	n/a	1
389.555	0.383333696	INCIVILITY	lure	n/a	n/a	n/a	1
389.939	2.01664149	PATCH	long	n/a	n/a	n/a	1
391.955	0.416708565	VIOLATION	lure	n/a	n/a	n/a	1
392.372	0.466610305	AUDACITY	lure	n/a	n/a	n/a	1
392.839	0.366664425	TRAVELER	lure	n/a	n/a	n/a	1
393.205	0.433389194	TOPSAIL	lure	n/a	n/a	n/a	1
393.639	0.499927279	WORDPLAY	lure	n/a	n/a	n/a	1
394.139	0.783367902	SACKCLOTH	lure	n/a	n/a	n/a	1
394.922	0.349947448	LITERALISM	lure	n/a	n/a	n/a	1
395.272	0.466657676	CAMPER	lure	n/a	n/a	n/a	1
395.739	0.433330008	INNUENDO	lure	n/a	n/a	n/a	1
396.172	0.483323095	AUTOMOBILE	lure	n/a	n/a	n/a	1
396.655	0.749990307	BALLAD	lure	n/a	n/a	n/a	1
397.405	0.483333742	GALLUP	lure	n/a	n/a	n/a	1
397.889	0.316663334	EXTREMITY	lure	n/a	n/a	n/a	1
398.205	2.016632552	CURB	long	n/a	n/a	n/a	1
400.222	0.4999961	COOKIE	lure	n/a	n/a	n/a	1
400.722	0.433321961	INCLUSION	lure	n/a	n/a	n/a	1
401.155	0.516661558	PORTRAYAL	lure	n/a	n/a	n/a	1
401.672	0.533332896	TORNADO	lure	n/a	n/a	n/a	1
402.205	0.499986526	CONGRUENCE	lure	n/a	n/a	n/a	1
402.705	0.733320473	NEGOTIATOR	lure	n/a	n/a	n/a	1
403.439	0.586248807	SLIPPER	lure	n/a	n/a	n/a	1
404.025	0.751567002	FILTRATION	lure	n/a	n/a	n/a	1
404.776	0.712164677	ADRENALIN	lure	n/a	n/a	n/a	1
405.488	0.683321857	COUGAR	lure	n/a	n/a	n/a	1
406.172	0.549993937	HEADSTONE	lure	n/a	n/a	n/a	1
406.722	2.016633838	PLANK	long	n/a	n/a	n/a	1
408.738	0.699987121	WHEAT	lure	n/a	n/a	n/a	1
409.438	0.699990948	SEAWATER	lure	n/a	n/a	n/a	1
410.138	0.433329317	DRAGON	lure	n/a	n/a	n/a	1
410.572	0.316660334	TANTRUM	lure	n/a	n/a	n/a	1
410.888	0.400002567	MICROPHONE	lure	n/a	n/a	n/a	1
411.288	0.749982675	ASSISTANT	lure	n/a	n/a	n/a	1
412.038	0.316660252	STATEROOM	lure	n/a	n/a	n/a	1
412.355	0.43332755	ANTIQUITY	lure	n/a	n/a	n/a	1
412.788	0.633332971	DINNERWARE	lure	n/a	n/a	n/a	1
413.422	0.616655523	MARIGOLD	lure	n/a	n/a	n/a	1
414.038	0.583321993	PADDLE	lure	n/a	n/a	n/a	1
414.622	0.683330948	ICECUBE	lure	n/a	n/a	n/a	1
415.305	0.666649857	SOAP	short	n/a	n/a	n/a	1
415.972	0.449998057	EQUINOX	lure	n/a	n/a	n/a	1
416.422	0.333322294	BEDSTEAD	lure	n/a	n/a	n/a	1
416.755	0.583332392	PROTEGEE	lure	n/a	n/a	n/a	1
417.338	0.5833209	SPINACH	lure	n/a	n/a	n/a	1
417.922	0.502616339	TEATIME	lure	n/a	n/a	n/a	1
418.424	0.718795391	QUART	lure	n/a	n/a	n/a	1
419.143	0.730566672	TRAJECTORY	lure	n/a	n/a	n/a	1
419.874	0.647985599	FIREWOOD	lure	n/a	n/a	n/a	1
420.522	0.583323108	PREVALENCE	lure	n/a	n/a	n/a	1
421.105	0.599999246	MORPHOLOGY	lure	n/a	n/a	n/a	1
421.705	0.3666538	REFINERY	lure	n/a	n/a	n/a	1
422.072	0.399998118	TIPPER	lure	n/a	n/a	n/a	1
422.472	0.61666285	COMPULSION	lure	n/a	n/a	n/a	1
423.088	0.451286305	SOLUTION	lure	n/a	n/a	n/a	1
423.54	2.015340682	CONTRACT	long	n/a	n/a	n/a	1
425.555	0.41666361	GREASER	lure	n/a	n/a	n/a	1
425.972	0.733319236	INTENSITY	lure	n/a	n/a	n/a	1
426.705	0.683329759	MARLIN	lure	n/a	n/a	n/a	1
427.388	0.649990823	MICE	lure	n/a	n/a	n/a	1
428.038	0.599986768	TRAINER	lure	n/a	n/a	n/a	1
428.638	0.683323238	NOVELTY	lure	n/a	n/a	n/a	1
429.321	0.349992709	MAXIMA	lure	n/a	n/a	n/a	1
429.671	0.602293634	SAGA	lure	n/a	n/a	n/a	1
430.274	0.597696753	RESISTOR	lure	n/a	n/a	n/a	1
430.871	0.416662328	INFIDELITY	lure	n/a	n/a	n/a	1
431.288	0.749983783	OVERKILL	lure	n/a	n/a	n/a	1
432.038	0.616664276	NICKEL	short	n/a	n/a	n/a	1
432.655	0.366660348	TRIBE	lure	n/a	n/a	n/a	1
433.021	0.701309771	ARMISTICE	lure	n/a	n/a	n/a	1
433.723	0.665334847	FINCH	lure	n/a	n/a	n/a	1
434.388	0.61666237	DINOSAUR	lure	n/a	n/a	n/a	1
435.005	0.599985249	CLOVER	lure	n/a	n/a	n/a	1
435.605	0.349996105	CIDER	lure	n/a	n/a	n/a	1
435.955	0.450000617	OVERSIGHT	lure	n/a	n/a	n/a	1
436.405	0.633316674	PAR	lure	n/a	n/a	n/a	1
437.038	0.349999025	PROTOTYPE	lure	n/a	n/a	n/a	1
437.388	0.599985878	SYSTEM	lure	n/a	n/a	n/a	1
437.988	0.583327748	GARNET	lure	n/a	n/a	n/a	1
438.571	0.616664469	SELLOUT	lure	n/a	n/a	n/a	1
439.188	0.79998424	TORMENT	lure	n/a	n/a	n/a	1
439.988	0.533329196	IMPRESSION	lure	n/a	n/a	n/a	1
440.521	1.016650108	PEACH	fruit	n/a	n/a	2	0
441.538	0.449993262	MIXER	lure	36	2	n/a	0
441.988	0.383331174	IDENTITY	lure	n/a	n/a	n/a	1
442.371	0.49998537	NAUGHT	lure	n/a	n/a	n/a	1
442.871	0.366661346	OVERSPILL	lure	n/a	n/a	n/a	1
443.238	0.349996675	TELEGRAPHY	lure	n/a	n/a	n/a	1
443.588	0.549995373	EXTRACT	lure	n/a	n/a	n/a	1
444.138	0.369652204	CITY	lure	n/a	n/a	n/a	1
444.508	0.565340781	SYNC	lure	n/a	n/a	n/a	1
445.073	0.681649078	SUPPLIER	lure	n/a	n/a	n/a	1
445.755	0.620714309	PUFFER	lure	n/a	n/a	n/a	1
446.375	0.662608466	BLOODHOUND	lure	n/a	n/a	n/a	1
447.038	0.733320019	NUMERAL	lure	n/a	n/a	n/a	1
447.771	0.566660545	PRECEPT	lure	n/a	n/a	n/a	1
448.338	0.383322603	HEADWAY	lure	n/a	n/a	n/a	1
448.721	0.616661455	APRON	short	n/a	n/a	n/a	1
449.338	0.433376483	GOATSKIN	lure	n/a	n/a	n/a	1
449.771	0.366614718	BLACKBOARD	lure	n/a	n/a	n/a	1
450.138	0.399990353	AGENT	lure	n/a	n/a	n/a	1
450.538	0.766660183	ACRONYM	lure	n/a	n/a	n/a	1
451.305	0.550026274	HEMISPHERE	lure	n/a	n/a	n/a	1
451.855	0.45000287	BALLPLAYER	lure	n/a	n/a	n/a	1
452.305	0.3666131	VIABILITY	lure	n/a	n/a	n/a	1
452.671	0.383331393	BRIDEGROOM	lure	n/a	n/a	n/a	1
453.054	0.600037563	FLATTERY	lure	n/a	n/a	n/a	1
453.655	0.649980447	MISSION	lure	n/a	n/a	n/a	1
454.305	0.550009753	INVASION	lure	n/a	n/a	n/a	1
454.855	0.36661174	RIBOFLAVIN	lure	n/a	n/a	n/a	1
455.221	0.749985249	WINGSPREAD	lure	n/a	n/a	n/a	1
455.971	0.666719468	DECOY	lure	n/a	n/a	n/a	1
456.638	0.383262127	WALKOVER	lure	n/a	n/a	n/a	1
457.021	0.366669691	RITUALISM	lure	n/a	n/a	n/a	1
457.388	0.683323924	MARTINI	lure	n/a	n/a	n/a	1
458.071	0.366661654	QUOTATION	lure	n/a	n/a	n/a	1
458.438	0.449992453	PRODUCT	lure	n/a	n/a	n/a	1
458.888	0.63336525	DETECTOR	lure	n/a	n/a	n/a	1
459.521	0.333288057	IMMUNITY	lure	n/a	n/a	n/a	1
459.854	0.449995197	ZONE	lure	n/a	n/a	n/a	1
460.304	0.383376982	METAPHYSIC	lure	n/a	n/a	n/a	1
460.688	0.49994378	BATHROBE	lure	n/a	n/a	n/a	1
461.188	0.716698157	COMMODORE	lure	n/a	n/a	n/a	1
461.904	0.549949439	MOTORCADE	lure	n/a	n/a	n/a	1
462.454	0.599992926	SPHINCTER	lure	n/a	n/a	n/a	1
463.054	0.333371667	SYMMETRY	lure	n/a	n/a	n/a	1
463.388	0.499942077	SHERIFF	lure	n/a	n/a	n/a	1
463.888	0.699994386	COACHMEN	lure	n/a	n/a	n/a	1
464.588	n/a	FULLBACK	lure	n/a	n/a	n/a	1