onset	duration	stim	cond	RT	resp	cresp	acc
4.048	0.633324455	CAVEMEN	lure	n/a	n/a	n/a	1
4.681	0.733320935	REFUND	lure	n/a	n/a	n/a	1
5.414	0.550048045	RICE	lure	n/a	n/a	n/a	1
5.964	0.483276202	SONNET	lure	n/a	n/a	n/a	1
6.448	0.699985957	VODKA	lure	n/a	n/a	n/a	1
7.148	0.533371855	CAFETERIA	lure	n/a	n/a	n/a	1
7.681	2.016592646	TIRE	long	n/a	n/a	n/a	1
9.698	0.39999475	DOCKYARD	lure	n/a	n/a	n/a	1
10.098	0.499988518	PRODUCER	lure	n/a	n/a	n/a	1
10.598	0.450060752	INFORMANT	lure	n/a	n/a	n/a	1
11.048	0.516600577	JASPER	lure	n/a	n/a	n/a	1
11.564	0.699985713	PROTRACTOR	lure	n/a	n/a	n/a	1
12.264	0.499992428	TRIDENT	lure	n/a	n/a	n/a	1
12.764	0.649998609	VIOLINIST	lure	n/a	n/a	n/a	1
13.414	0.566654455	DOCKSIDE	lure	n/a	n/a	n/a	1
13.981	0.583328785	BIRTHMARK	lure	n/a	n/a	n/a	1
14.564	0.349989573	DIALOGUE	lure	n/a	n/a	n/a	1
14.914	0.699992141	GULF	lure	n/a	n/a	n/a	1
15.614	0.499987901	COMPUTER	lure	n/a	n/a	n/a	1
16.114	2.049975015	FOSSIL	long	n/a	n/a	n/a	1
18.164	0.683327709	ANALYST	lure	n/a	n/a	n/a	1
18.848	0.449986153	SEQUEL	lure	n/a	n/a	n/a	1
19.298	0.699994432	BLURB	lure	n/a	n/a	n/a	1
19.998	0.400039484	DOGMA	lure	n/a	n/a	n/a	1
20.398	0.433280528	WETTER	lure	n/a	n/a	n/a	1
20.831	0.433331421	BONBON	lure	n/a	n/a	n/a	1
21.264	0.483329413	PROSPERITY	lure	n/a	n/a	n/a	1
21.747	0.36670167	AMBULANCE	lure	n/a	n/a	n/a	1
22.114	0.666607844	HEARTACHE	lure	n/a	n/a	n/a	1
22.781	0.716663569	ADJUSTMENT	lure	n/a	n/a	n/a	1
23.497	0.349988316	EYEBROW	lure	n/a	n/a	n/a	1
23.847	0.535303704	SUBURB	lure	n/a	n/a	n/a	1
24.383	0.615566771	TIMBER	short	n/a	n/a	n/a	1
24.998	0.38245049	MEDIATOR	lure	n/a	n/a	n/a	1
25.381	0.333328822	NARRATION	lure	n/a	n/a	n/a	1
25.714	0.549992579	BIRDSEED	lure	n/a	n/a	n/a	1
26.264	0.733320948	NEGLIGENCE	lure	n/a	n/a	n/a	1
26.997	0.683325458	RETAILER	lure	n/a	n/a	n/a	1
27.681	0.599989733	EXAMINER	lure	n/a	n/a	n/a	1
28.281	0.799985476	PERSUASION	lure	n/a	n/a	n/a	1
29.081	0.53332861	RELICT	lure	n/a	n/a	n/a	1
29.614	0.450028921	CARIBOU	lure	n/a	n/a	n/a	1
30.064	0.516658066	HENCHMEN	lure	n/a	n/a	n/a	1
30.581	0.433289643	SHAWL	lure	n/a	n/a	n/a	1
31.014	0.734989161	SHORTSTOP	lure	n/a	n/a	n/a	1
31.749	0.381666209	COVE	lure	n/a	n/a	n/a	1
32.131	1.01665401	BLUEBERRY	fruit	650	2	2	1
33.147	0.4499866	THROWER	lure	n/a	n/a	n/a	1
33.597	0.749988764	PRINCIPLE	lure	n/a	n/a	n/a	1
34.347	0.399997317	CATEGORY	lure	n/a	n/a	n/a	1
34.747	0.700036613	IMMOBILITY	lure	n/a	n/a	n/a	1
35.447	0.666611067	EMBLEM	lure	n/a	n/a	n/a	1
36.114	0.433371263	CARPORT	lure	n/a	n/a	n/a	1
36.547	0.349957635	TESTER	lure	n/a	n/a	n/a	1
36.897	0.666657889	CREATIVITY	lure	n/a	n/a	n/a	1
37.564	0.416659159	DEPOT	lure	n/a	n/a	n/a	1
37.981	0.333324858	BOMBSHELL	lure	n/a	n/a	n/a	1
38.314	0.736895406	GRENADE	lure	n/a	n/a	n/a	1
39.051	0.613564363	SLEEPYHEAD	lure	n/a	n/a	n/a	1
39.664	0.799511121	BIRTHRATE	lure	n/a	n/a	n/a	1
40.464	2.016642225	SKETCH	long	n/a	n/a	n/a	1
42.481	0.433319211	JOYSTICK	lure	n/a	n/a	n/a	1
42.914	0.733323433	FOUNDATION	lure	n/a	n/a	n/a	1
43.647	0.699992466	QUAD	lure	n/a	n/a	n/a	1
44.347	0.599989055	INCUMBENCY	lure	n/a	n/a	n/a	1
44.947	0.633325944	JEWEL	lure	n/a	n/a	n/a	1
45.58	0.383328609	ARCHWAY	lure	n/a	n/a	n/a	1
45.964	0.366659582	GLYCERIN	lure	n/a	n/a	n/a	1
46.33	0.44999373	REDDING	lure	n/a	n/a	n/a	1
46.78	0.533331029	SUNSTROKE	lure	n/a	n/a	n/a	1
47.314	0.39999875	DEADLOCK	lure	n/a	n/a	n/a	1
47.714	0.549986413	BREADLINE	lure	n/a	n/a	n/a	1
48.264	0.400036766	BROTHER	lure	n/a	n/a	n/a	1
48.664	0.616615902	NAIL	short	n/a	n/a	n/a	1
49.28	0.766661255	ORCHESTRA	lure	n/a	n/a	n/a	1
50.047	0.466659776	SYNDROME	lure	n/a	n/a	n/a	1
50.514	0.749981329	QUEST	lure	n/a	n/a	n/a	1
51.264	0.433327715	SUBJECTION	lure	n/a	n/a	n/a	1
51.697	0.466709843	COUNTRYMEN	lure	n/a	n/a	n/a	1
52.164	0.399948994	QUEEN	lure	n/a	n/a	n/a	1
52.564	0.399997763	RECEIPT	lure	n/a	n/a	n/a	1
52.964	0.633319916	GUARDHOUSE	lure	n/a	n/a	n/a	1
53.597	0.716659997	GATOR	lure	n/a	n/a	n/a	1
54.314	0.499986613	GIRL	lure	n/a	n/a	n/a	1
54.814	0.366670048	SNOUT	lure	n/a	n/a	n/a	1
55.18	0.749990226	DOGFIGHT	lure	n/a	n/a	n/a	1
55.93	0.533325951	WATERSIDE	lure	n/a	n/a	n/a	1
56.464	0.350028577	NECKLINE	lure	n/a	n/a	n/a	1
56.814	2.016602585	LEAF	long	n/a	n/a	n/a	1
58.83	0.366718189	DISASTER	lure	n/a	n/a	n/a	1
59.197	0.683270105	LEGIBILITY	lure	n/a	n/a	n/a	1
59.88	0.383318564	COSMOLOGY	lure	n/a	n/a	n/a	1
60.264	0.699999081	SALAD	lure	n/a	n/a	n/a	1
60.964	0.533326414	SPECK	lure	n/a	n/a	n/a	1
61.497	0.633322486	EXCURSION	lure	n/a	n/a	n/a	1
62.13	0.416662716	SCALLION	lure	n/a	n/a	n/a	1
62.547	0.666697007	IMMUNOLOGY	lure	n/a	n/a	n/a	1
63.214	0.733281398	GATEKEEPER	lure	n/a	n/a	n/a	1
63.947	0.316703555	FUNFAIR	lure	n/a	n/a	n/a	1
64.264	0.633280879	MILLENIUM	lure	n/a	n/a	n/a	1
64.897	0.317994192	OVERFLOW	lure	n/a	n/a	n/a	1
65.215	0.615327554	PENNY	short	n/a	n/a	n/a	1
65.83	0.500041057	PRUDE	lure	n/a	n/a	n/a	1
66.33	0.716605187	TORPEDO	lure	n/a	n/a	n/a	1
67.047	0.74999425	GNOME	lure	n/a	n/a	n/a	1
67.797	0.68332265	EYELET	lure	n/a	n/a	n/a	1
68.48	0.485653706	NONE	lure	n/a	n/a	n/a	1
68.966	0.347665642	PIER	lure	n/a	n/a	n/a	1
69.313	0.733322152	SUBSIDIARY	lure	n/a	n/a	n/a	1
70.047	0.683325398	PROMPTER	lure	n/a	n/a	n/a	1
70.73	0.583330575	FENDER	lure	n/a	n/a	n/a	1
71.313	0.516650838	BUILDUP	lure	n/a	n/a	n/a	1
71.83	0.616664171	MATERNITY	lure	n/a	n/a	n/a	1
72.447	0.516712166	WIGHT	lure	n/a	n/a	n/a	1
72.964	0.516659318	ENDURANCE	lure	n/a	n/a	n/a	1
73.48	1.016596491	LIME	fruit	893	2	2	1
74.497	0.599995377	STINT	lure	n/a	n/a	n/a	1
75.097	0.499997706	DOGGY	lure	n/a	n/a	n/a	1
75.597	0.366653341	LOAFER	lure	n/a	n/a	n/a	1
75.963	0.433328746	OBOE	lure	n/a	n/a	n/a	1
76.397	0.666661626	BORROWER	lure	n/a	n/a	n/a	1
77.063	0.616658543	ENGRAVER	lure	n/a	n/a	n/a	1
77.68	0.700024034	SHIPPER	lure	n/a	n/a	n/a	1
78.38	0.316623212	INVALID	lure	n/a	n/a	n/a	1
78.697	0.599994582	KIDDY	lure	n/a	n/a	n/a	1
79.297	0.483328798	WARFARE	lure	n/a	n/a	n/a	1
79.78	0.583325717	MAMMAL	lure	n/a	n/a	n/a	1
80.363	0.666657218	PROGRAMMER	lure	n/a	n/a	n/a	1
81.03	0.720700743	SONOGRAM	lure	n/a	n/a	n/a	1
81.751	0.712608387	SNAPSHOT	lure	n/a	n/a	n/a	1
82.463	2.016636678	RAKE	long	n/a	n/a	n/a	1
84.48	0.349992444	ARCHBISHOP	lure	n/a	n/a	n/a	1
84.83	0.433333743	CADENCE	lure	n/a	n/a	n/a	1
85.263	0.649986875	NOTATION	lure	n/a	n/a	n/a	1
85.913	0.350001956	REMISSION	lure	n/a	n/a	n/a	1
86.263	0.650029572	STY	lure	n/a	n/a	n/a	1
86.913	0.649944179	HARDSHIP	lure	n/a	n/a	n/a	1
87.563	0.533333087	HYPNOTIST	lure	n/a	n/a	n/a	1
88.097	0.699991709	SANDAL	lure	n/a	n/a	n/a	1
88.797	0.799987691	BABE	lure	n/a	n/a	n/a	1
89.597	0.61665254	HUNTSMAN	lure	n/a	n/a	n/a	1
90.213	0.533332111	CIVILITY	lure	n/a	n/a	n/a	1
90.747	1.018202546	PEAR	fruit	778	2	2	1
91.765	0.531772613	ASSIGNMENT	lure	n/a	n/a	n/a	1
92.297	0.499989979	INQUISITOR	lure	n/a	n/a	n/a	1
92.797	0.349999467	PALLBEARER	lure	n/a	n/a	n/a	1
93.147	0.383321755	BLADE	lure	n/a	n/a	n/a	1
93.53	0.633331009	NONSMOKER	lure	n/a	n/a	n/a	1
94.163	0.366654776	CANDLEWICK	lure	n/a	n/a	n/a	1
94.53	0.533329845	COMMUNION	lure	n/a	n/a	n/a	1
95.063	0.651509025	MOTHERLAND	lure	n/a	n/a	n/a	1
95.715	0.648473557	FANTASY	lure	n/a	n/a	n/a	1
96.363	0.733321491	AMENITY	lure	n/a	n/a	n/a	1
97.096	0.349994033	ODE	lure	n/a	n/a	n/a	1
97.446	0.450000391	WRISTBAND	lure	n/a	n/a	n/a	1
97.896	0.649985386	SABOTAGE	lure	n/a	n/a	n/a	1
98.546	0.533326237	SUMMARY	lure	n/a	n/a	n/a	1
99.08	0.61666306	APRON	short	n/a	n/a	n/a	1
99.696	0.51665373	SUNBEAM	lure	n/a	n/a	n/a	1
100.213	0.699991118	LINEAGE	lure	n/a	n/a	n/a	1
100.913	0.499990298	MOTORIST	lure	n/a	n/a	n/a	1
101.413	0.399999965	PAINTBRUSH	lure	n/a	n/a	n/a	1
101.813	0.583328676	CONTRACTOR	lure	n/a	n/a	n/a	1
102.396	0.583323368	PATROLMEN	lure	n/a	n/a	n/a	1
102.98	0.399986972	ZENITH	lure	n/a	n/a	n/a	1
103.38	0.566667281	MUSTACHE	lure	n/a	n/a	n/a	1
103.946	0.466651992	COPYWRITER	lure	n/a	n/a	n/a	1
104.413	0.500001821	BASEBOARD	lure	n/a	n/a	n/a	1
104.913	0.716656751	PERSON	lure	n/a	n/a	n/a	1
105.63	0.599987367	COUSIN	lure	n/a	n/a	n/a	1
106.23	0.683327797	BRIDGEHEAD	lure	n/a	n/a	n/a	1
106.913	0.716656224	APEX	lure	n/a	n/a	n/a	1
107.63	0.616659312	LENS	short	n/a	n/a	n/a	1
108.246	0.383327443	PEEPER	lure	n/a	n/a	n/a	1
108.63	0.549987592	TURPENTINE	lure	n/a	n/a	n/a	1
109.18	0.69998749	BUYER	lure	n/a	n/a	n/a	1
109.88	0.433326203	ADVISOR	lure	n/a	n/a	n/a	1
110.313	0.683326453	FOE	lure	n/a	n/a	n/a	1
110.996	0.399992089	INNOCENCE	lure	n/a	n/a	n/a	1
111.396	0.616661532	INCEPTION	lure	n/a	n/a	n/a	1
112.013	0.549989692	FOXHOUND	lure	n/a	n/a	n/a	1
112.563	0.616657694	KICKER	lure	n/a	n/a	n/a	1
113.18	0.616666576	NEURON	lure	n/a	n/a	n/a	1
113.796	0.633319422	LOBBYIST	lure	n/a	n/a	n/a	1
114.43	0.733329583	CZAR	lure	n/a	n/a	n/a	1
115.163	0.599984868	FOXHOLE	lure	n/a	n/a	n/a	1
115.763	0.499997453	SCRIPT	lure	n/a	n/a	n/a	1
116.263	0.616657343	NICKEL	short	n/a	n/a	n/a	1
116.88	0.716650649	ELLIPSE	lure	n/a	n/a	n/a	1
117.596	0.516787835	COMBUSTION	lure	n/a	n/a	n/a	1
118.113	0.502425728	LUMINOSITY	lure	n/a	n/a	n/a	1
118.615	0.547436432	MATH	lure	n/a	n/a	n/a	1
119.163	0.316660922	COOKY	lure	n/a	n/a	n/a	1
119.479	0.699986027	RESPITE	lure	n/a	n/a	n/a	1
120.179	0.366663999	STEPSON	lure	n/a	n/a	n/a	1
120.546	0.400049331	KITE	lure	n/a	n/a	n/a	1
120.946	0.733266647	GENTLEMAN	lure	n/a	n/a	n/a	1
121.679	0.618843498	REDUCTION	lure	n/a	n/a	n/a	1
122.298	0.582566709	ABSOLUTION	lure	n/a	n/a	n/a	1
122.881	0.481902446	EXEMPTION	lure	n/a	n/a	n/a	1
123.363	0.433323406	RUNOFF	lure	n/a	n/a	n/a	1
123.796	0.716665871	HIDEAWAY	lure	n/a	n/a	n/a	1
124.513	0.416701635	ABBOT	lure	n/a	n/a	n/a	1
124.929	1.016606458	CHERRY	fruit	715	2	2	1
125.946	0.499991826	PLAZA	lure	n/a	n/a	n/a	1
126.446	0.599993065	GANGWAY	lure	n/a	n/a	n/a	1
127.046	0.466656669	CHEESECAKE	lure	n/a	n/a	n/a	1
127.513	0.666657819	REPERTOIRE	lure	n/a	n/a	n/a	1
128.179	0.699989775	SIDEWALK	lure	n/a	n/a	n/a	1
128.879	0.433385507	HIPPO	lure	n/a	n/a	n/a	1
129.313	0.518151533	GREENBACK	lure	n/a	n/a	n/a	1
129.831	0.748442152	PAYLOAD	lure	n/a	n/a	n/a	1
130.579	0.333332839	ASCENT	lure	n/a	n/a	n/a	1
130.913	0.399995997	MINEFIELD	lure	n/a	n/a	n/a	1
131.313	0.349986719	BACKLOG	lure	n/a	n/a	n/a	1
131.663	0.533333381	SILHOUETTE	lure	n/a	n/a	n/a	1
132.196	0.416653507	DIVER	lure	n/a	n/a	n/a	1
132.613	0.699999984	TRUMPETER	lure	n/a	n/a	n/a	1
133.313	0.616657162	MATTRESS	short	n/a	n/a	n/a	1
133.929	0.649988752	DISGRACE	lure	n/a	n/a	n/a	1
134.579	0.733319333	MANDIBLE	lure	n/a	n/a	n/a	1
135.313	0.333326297	TRAPDOOR	lure	n/a	n/a	n/a	1
135.646	0.583333969	TOPOGRAPHY	lure	n/a	n/a	n/a	1
136.229	0.766656043	FORBEAR	lure	n/a	n/a	n/a	1
136.996	0.366652811	ATTENTION	lure	n/a	n/a	n/a	1
137.363	0.749989923	ANNOTATION	lure	n/a	n/a	n/a	1
138.113	0.566667233	MOLECULE	lure	n/a	n/a	n/a	1
138.679	0.383319738	LAIR	lure	n/a	n/a	n/a	1
139.063	0.316667888	FINALE	lure	n/a	n/a	n/a	1
139.379	0.383325625	CHASER	lure	n/a	n/a	n/a	1
139.763	0.466666722	LOCKER	lure	n/a	n/a	n/a	1
140.229	0.549982839	ARTERY	lure	n/a	n/a	n/a	1
140.779	0.71665655	BORDERLAND	lure	n/a	n/a	n/a	1
141.496	2.016648459	PITCHFORK	long	n/a	n/a	n/a	1
143.512	0.46665017	CUMULATION	lure	n/a	n/a	n/a	1
143.979	0.516663399	WILDCAT	lure	n/a	n/a	n/a	1
144.496	0.599990929	COUP	lure	n/a	n/a	n/a	1
145.096	0.433330697	JAILBREAK	lure	n/a	n/a	n/a	1
145.529	0.550036836	BULB	lure	n/a	n/a	n/a	1
146.079	0.799941376	TAXONOMY	lure	n/a	n/a	n/a	1
146.879	0.633327095	WAVELENGTH	lure	n/a	n/a	n/a	1
147.512	0.549986652	CRITERIA	lure	n/a	n/a	n/a	1
148.062	0.383329798	REPAIRMEN	lure	n/a	n/a	n/a	1
148.446	0.416666804	CERTAINTY	lure	n/a	n/a	n/a	1
148.862	0.733323409	HORNET	lure	n/a	n/a	n/a	1
149.596	0.566652465	VIOLIN	lure	n/a	n/a	n/a	1
150.162	1.016651948	GRAPEFRUIT	fruit	699	2	2	1
151.179	0.750038563	MARKER	lure	n/a	n/a	n/a	1
151.929	0.683273465	CUB	lure	n/a	n/a	n/a	1
152.612	0.616661958	PIGPEN	lure	n/a	n/a	n/a	1
153.229	0.633328943	SONG	lure	n/a	n/a	n/a	1
153.862	0.616656888	EVIDENCE	lure	n/a	n/a	n/a	1
154.479	0.566651285	INFERENCE	lure	n/a	n/a	n/a	1
155.046	0.750041066	UPSWING	lure	n/a	n/a	n/a	1
155.796	0.366652206	PARSLEY	lure	n/a	n/a	n/a	1
156.162	0.416626171	PERSONA	lure	n/a	n/a	n/a	1
156.579	0.549993118	DISBELIEF	lure	n/a	n/a	n/a	1
157.129	0.317462451	MISCOUNT	lure	n/a	n/a	n/a	1
157.446	0.732567139	PROSPECTOR	lure	n/a	n/a	n/a	1
158.179	0.483279901	HOBO	lure	n/a	n/a	n/a	1
158.662	2.016642494	PLANK	long	n/a	n/a	n/a	1
160.679	0.751424104	TRAITOR	lure	n/a	n/a	n/a	1
161.43	0.665221911	SEAGULL	lure	n/a	n/a	n/a	1
162.096	0.749984892	TURKEY	lure	n/a	n/a	n/a	1
162.846	0.633329343	MOTORWAY	lure	n/a	n/a	n/a	1
163.479	0.716649071	SOLVENCY	lure	n/a	n/a	n/a	1
164.196	0.766665128	STEED	lure	n/a	n/a	n/a	1
164.962	0.73332277	LUNCHEON	lure	n/a	n/a	n/a	1
165.696	0.450029429	CHIFFON	lure	n/a	n/a	n/a	1
166.146	0.483286468	EVANGELISM	lure	n/a	n/a	n/a	1
166.629	2.01663765	PATCH	long	n/a	n/a	n/a	1
168.645	0.666654956	SHEATH	lure	n/a	n/a	n/a	1
169.312	0.383385892	CLOSET	lure	n/a	n/a	n/a	1
169.695	0.633268462	GYMNAST	lure	n/a	n/a	n/a	1
170.329	0.53332343	SAUCER	lure	n/a	n/a	n/a	1
170.862	0.703831253	GAMEKEEPER	lure	n/a	n/a	n/a	1
171.566	0.463560807	KILOMETER	lure	n/a	n/a	n/a	1
172.029	0.582584477	CONCUSSION	lure	n/a	n/a	n/a	1
172.612	0.650040896	MAILER	lure	n/a	n/a	n/a	1
173.262	0.766614275	TECHNOLOGY	lure	n/a	n/a	n/a	1
174.029	0.683315278	COWHERD	lure	n/a	n/a	n/a	1
174.712	0.666663554	GOLFER	lure	n/a	n/a	n/a	1
175.379	0.616654493	ROOT	short	n/a	n/a	n/a	1
175.995	0.533376472	TIEBREAKER	lure	n/a	n/a	n/a	1
176.529	0.549939593	MOLAR	lure	n/a	n/a	n/a	1
177.079	0.4500021	SILICA	lure	n/a	n/a	n/a	1
177.529	0.466660009	POSITIVISM	lure	n/a	n/a	n/a	1
177.995	0.599986564	JOINER	lure	n/a	n/a	n/a	1
178.595	0.733328461	SYLLABLE	lure	n/a	n/a	n/a	1
179.329	0.400050237	THEATER	lure	n/a	n/a	n/a	1
179.729	0.649928443	GOVERNMENT	lure	n/a	n/a	n/a	1
180.379	0.366660129	NIP	lure	n/a	n/a	n/a	1
180.745	0.683324322	UNIVERSE	lure	n/a	n/a	n/a	1
181.429	0.683679275	FIELDSMAN	lure	n/a	n/a	n/a	1
182.112	0.532977168	SKELETON	lure	n/a	n/a	n/a	1
182.645	0.416653217	DRAUGHT	lure	n/a	n/a	n/a	1
183.062	0.733329582	WAISTLINE	lure	n/a	n/a	n/a	1
183.795	0.616657772	SOAP	short	n/a	n/a	n/a	1
184.412	0.400041035	EVASION	lure	n/a	n/a	n/a	1
184.812	0.416674704	BENEFACTOR	lure	n/a	n/a	n/a	1
185.229	0.583265504	FROSTBITE	lure	n/a	n/a	n/a	1
185.812	0.449991263	WOODCRAFT	lure	n/a	n/a	n/a	1
186.262	0.633324512	MOMMA	lure	n/a	n/a	n/a	1
186.895	0.533328115	SPORTSMAN	lure	n/a	n/a	n/a	1
187.429	0.583357997	PAYROLL	lure	n/a	n/a	n/a	1
188.012	0.766622717	HISTOLOGY	lure	n/a	n/a	n/a	1
188.779	0.59998622	RULEBOOK	lure	n/a	n/a	n/a	1
189.378	0.549996235	PROMOTER	lure	n/a	n/a	n/a	1
189.928	0.71665813	RECTORY	lure	n/a	n/a	n/a	1
190.645	0.466659999	JEALOUSY	lure	n/a	n/a	n/a	1
191.112	0.567049024	TRICKERY	lure	n/a	n/a	n/a	1
191.679	0.482935842	EXPIRATION	lure	n/a	n/a	n/a	1
192.162	2.01663836	CONTRACT	long	n/a	n/a	n/a	1
194.178	0.499995325	HEADBOARD	lure	n/a	n/a	n/a	1
194.678	0.633323409	AGGRESSION	lure	n/a	n/a	n/a	1
195.312	0.566653208	WRIST	lure	n/a	n/a	n/a	1
195.878	0.749989998	PAD	lure	n/a	n/a	n/a	1
196.628	0.433332913	CAMPGROUND	lure	n/a	n/a	n/a	1
197.062	0.533370183	FELLA	lure	n/a	n/a	n/a	1
197.595	0.699999002	MEANIE	lure	n/a	n/a	n/a	1
198.295	0.433274794	GRAVEL	lure	n/a	n/a	n/a	1
198.728	0.666655817	ANCESTOR	lure	n/a	n/a	n/a	1
199.395	0.383325505	COWHIDE	lure	n/a	n/a	n/a	1
199.778	0.349997983	PUMICE	lure	n/a	n/a	n/a	1
200.128	0.566698008	EDITOR	lure	n/a	n/a	n/a	1
200.695	0.616620687	TRUCK	short	n/a	n/a	n/a	1
201.312	0.683317188	DIARY	lure	n/a	n/a	n/a	1
201.995	0.416661042	BOATMAN	lure	n/a	n/a	n/a	1
202.412	0.733328871	VALENCE	lure	n/a	n/a	n/a	1
203.145	0.44999309	HILL	lure	n/a	n/a	n/a	1
203.595	0.634796139	NIGHTLIFE	lure	n/a	n/a	n/a	1
204.23	0.681847495	ASSISTANCE	lure	n/a	n/a	n/a	1
204.912	0.483329478	STEAK	lure	n/a	n/a	n/a	1
205.395	0.449995644	FARMSTEAD	lure	n/a	n/a	n/a	1
205.845	0.616658528	DUALISM	lure	n/a	n/a	n/a	1
206.462	0.466655629	TRIPOD	lure	n/a	n/a	n/a	1
206.928	0.633324348	SCAFFOLD	lure	n/a	n/a	n/a	1
207.562	0.566662434	SPINE	lure	n/a	n/a	n/a	1
208.128	0.733319612	ANTITOXIN	lure	n/a	n/a	n/a	1
208.862	1.049989224	MELON	fruit	n/a	n/a	2	0
209.912	0.499994754	RESTAURANT	lure	n/a	n/a	n/a	1
210.412	0.399993148	WAYSIDE	lure	297	2	n/a	0
210.812	0.516659733	DUSTER	lure	n/a	n/a	n/a	1
211.328	0.733362064	JUDGEMENT	lure	n/a	n/a	n/a	1
212.062	0.466657301	GROWTH	lure	n/a	n/a	n/a	1
212.528	0.316622845	TACTIC	lure	n/a	n/a	n/a	1
212.845	0.733323866	LATTICE	lure	n/a	n/a	n/a	1
213.578	0.670190445	CABBY	lure	n/a	n/a	n/a	1
214.248	0.463131839	PUBLICIST	lure	n/a	n/a	n/a	1
214.711	0.599989979	TOPCOAT	lure	n/a	n/a	n/a	1
215.311	0.383328264	MIDDLEMAN	lure	n/a	n/a	n/a	1
215.695	0.633324515	ALABASTER	lure	n/a	n/a	n/a	1
216.328	0.48332149	SECURITY	lure	n/a	n/a	n/a	1
216.811	0.449994215	LUMINARY	lure	n/a	n/a	n/a	1
217.261	2.01663918	CURB	long	n/a	n/a	n/a	1
219.278	0.633326093	SYMBOL	lure	n/a	n/a	n/a	1
219.911	0.49999119	ASYMMETRY	lure	n/a	n/a	n/a	1
220.411	0.333331632	MAINSPRING	lure	n/a	n/a	n/a	1
220.745	0.333328892	DEMEANOR	lure	n/a	n/a	n/a	1
221.078	0.56665806	EMERGENCY	lure	n/a	n/a	n/a	1
221.645	0.483328492	JESTER	lure	n/a	n/a	n/a	1
222.128	0.516654726	SUITOR	lure	n/a	n/a	n/a	1
222.645	0.433327204	WATERSHED	lure	n/a	n/a	n/a	1
223.078	0.749989933	GRANDSON	lure	n/a	n/a	n/a	1
223.828	0.633328894	SWEEPSTAKE	lure	n/a	n/a	n/a	1
224.461	0.54999203	ATTENDANT	lure	n/a	n/a	n/a	1
225.011	0.449992013	GLEANER	lure	n/a	n/a	n/a	1
225.461	0.46666212	RHINESTONE	lure	n/a	n/a	n/a	1
225.928	0.51665892	MEMBERSHIP	lure	n/a	n/a	n/a	1
226.445	0.566659624	EYESIGHT	lure	n/a	n/a	n/a	1
227.011	n/a	CLARINET	lure	n/a	n/a	n/a	1
238.011	0.716654608	RAFT	lure	n/a	n/a	n/a	1
238.728	0.683325631	DEVIANCE	lure	n/a	n/a	n/a	1
239.411	0.666658614	TINFOIL	lure	n/a	n/a	n/a	1
240.078	0.566655593	TUTORIAL	lure	n/a	n/a	n/a	1
240.644	0.38333217	DOGWOOD	lure	n/a	n/a	n/a	1
241.028	0.733318755	NAPE	lure	n/a	n/a	n/a	1
241.761	0.616661783	SOAP	short	n/a	n/a	n/a	1
242.378	0.566658639	MISTLETOE	lure	n/a	n/a	n/a	1
242.944	0.366658686	FIST	lure	n/a	n/a	n/a	1
243.311	0.449995178	JOGGER	lure	n/a	n/a	n/a	1
243.761	0.649993368	CHEEKBONE	lure	n/a	n/a	n/a	1
244.411	0.383328661	BEAGLE	lure	n/a	n/a	n/a	1
244.794	0.749986214	CARNIVAL	lure	n/a	n/a	n/a	1
245.544	0.699991685	LEGISLATOR	lure	n/a	n/a	n/a	1
246.244	0.449990752	HEADPIECE	lure	n/a	n/a	n/a	1
246.694	0.700707806	ALMANAC	lure	n/a	n/a	n/a	1
247.395	0.499277662	CRACKPOT	lure	n/a	n/a	n/a	1
247.894	0.483325103	PREPAYMENT	lure	n/a	n/a	n/a	1
248.378	0.566663223	RIM	lure	n/a	n/a	n/a	1
248.944	0.649989166	BANDIT	lure	n/a	n/a	n/a	1
249.594	0.666655589	HIGHWAY	lure	n/a	n/a	n/a	1
250.261	0.616720106	NICKEL	short	n/a	n/a	n/a	1
250.878	0.649929438	DECREMENT	lure	n/a	n/a	n/a	1
251.528	0.433325339	CONSUMER	lure	n/a	n/a	n/a	1
251.961	0.349995134	PATHWAY	lure	n/a	n/a	n/a	1
252.311	0.749989666	JUDGESHIP	lure	n/a	n/a	n/a	1
253.061	0.466663754	TIGHTROPE	lure	n/a	n/a	n/a	1
253.528	0.583327333	PEDDLER	lure	n/a	n/a	n/a	1
254.111	0.549988564	DEUCE	lure	n/a	n/a	n/a	1
254.661	0.516706612	ZEST	lure	n/a	n/a	n/a	1
255.178	0.316618998	EYELID	lure	n/a	n/a	n/a	1
255.494	0.599986149	BENEFICENT	lure	n/a	n/a	n/a	1
256.094	0.566663253	SPOOF	lure	n/a	n/a	n/a	1
256.661	0.434749437	TEACHER	lure	n/a	n/a	n/a	1
257.096	0.69856745	VISA	lure	n/a	n/a	n/a	1
257.794	0.466656924	RAYON	lure	n/a	n/a	n/a	1
258.261	2.016643674	FOSSIL	long	n/a	n/a	n/a	1
260.278	0.583319009	MICROWAVE	lure	n/a	n/a	n/a	1
260.861	0.749994206	BRAINSTORM	lure	n/a	n/a	n/a	1
261.611	0.58332624	SPACECRAFT	lure	n/a	n/a	n/a	1
262.194	0.699988944	PROVEn/aCE	lure	n/a	n/a	n/a	1
262.894	0.466657882	CAUSATION	lure	n/a	n/a	n/a	1
263.361	0.649991741	ASSEMBLY	lure	n/a	n/a	n/a	1
264.011	0.616657125	DUD	lure	n/a	n/a	n/a	1
264.627	0.366660785	DISTEMPER	lure	n/a	n/a	n/a	1
264.994	0.716661922	SPLOTCH	lure	n/a	n/a	n/a	1
265.711	0.733319533	BEQUEST	lure	n/a	n/a	n/a	1
266.444	0.316661642	SHOEMAKER	lure	n/a	n/a	n/a	1
266.761	2.016642796	PLANK	long	n/a	n/a	n/a	1
268.777	0.733321114	DEFIANCE	lure	n/a	n/a	n/a	1
269.511	0.63484977	PRECINCT	lure	n/a	n/a	n/a	1
270.146	0.350561802	MALCONTENT	lure	n/a	n/a	n/a	1
270.496	0.414568035	PROPANE	lure	n/a	n/a	n/a	1
270.911	0.399995777	BRAKEMAN	lure	n/a	n/a	n/a	1
271.311	0.666656118	REALITY	lure	n/a	n/a	n/a	1
271.977	0.533326295	AFFINITY	lure	n/a	n/a	n/a	1
272.511	0.56665875	MOUTHPIECE	lure	n/a	n/a	n/a	1
273.077	0.683323471	JOIST	lure	n/a	n/a	n/a	1
273.761	0.633327182	BAKERY	lure	n/a	n/a	n/a	1
274.394	0.733321776	REVOLUTION	lure	n/a	n/a	n/a	1
275.127	0.383324898	MAST	lure	n/a	n/a	n/a	1
275.511	0.61666183	TIMBER	short	n/a	n/a	n/a	1
276.127	0.649992818	CAMERA	lure	n/a	n/a	n/a	1
276.777	0.499995703	FILLER	lure	n/a	n/a	n/a	1
277.277	0.666655489	BLOWBACK	lure	n/a	n/a	n/a	1
277.944	0.733316527	BYPRODUCT	lure	n/a	n/a	n/a	1
278.677	0.316665028	SUSPENDER	lure	n/a	n/a	n/a	1
278.994	0.333327577	SALUTATION	lure	n/a	n/a	n/a	1
279.327	0.749990381	PEACOCK	lure	n/a	n/a	n/a	1
280.077	0.349996185	CONTAINER	lure	n/a	n/a	n/a	1
280.427	0.549991122	BACKLASH	lure	n/a	n/a	n/a	1
280.977	0.616658391	ENTREATY	lure	n/a	n/a	n/a	1
281.594	0.499996901	WILLPOWER	lure	n/a	n/a	n/a	1
282.094	0.383375559	NARCISSIST	lure	n/a	n/a	n/a	1
282.477	0.533276078	RUT	lure	n/a	n/a	n/a	1
283.011	0.316842941	MAESTRO	lure	n/a	n/a	n/a	1
283.327	0.433143903	DUPLICITY	lure	n/a	n/a	n/a	1
283.761	1.016652202	ORANGE	fruit	660	2	2	1
284.777	0.366662963	BOOKSHELF	lure	n/a	n/a	n/a	1
285.144	0.666660488	SINGLETON	lure	n/a	n/a	n/a	1
285.811	0.366660152	RECESSION	lure	n/a	n/a	n/a	1
286.177	0.583325207	ADVERB	lure	n/a	n/a	n/a	1
286.76	0.316707334	BOILER	lure	n/a	n/a	n/a	1
287.077	0.699984156	MILLSTONE	lure	n/a	n/a	n/a	1
287.777	0.533284034	TEDDY	lure	n/a	n/a	n/a	1
288.31	0.449999501	NICHE	lure	n/a	n/a	n/a	1
288.76	0.383322237	INSOLENCE	lure	n/a	n/a	n/a	1
289.144	0.583368289	SANDBAR	lure	n/a	n/a	n/a	1
289.727	0.483284243	VOYAGER	lure	n/a	n/a	n/a	1
290.21	0.400053452	EFFICIENCY	lure	n/a	n/a	n/a	1
290.61	0.449936502	MARKUP	lure	n/a	n/a	n/a	1
291.06	0.316665581	METAPHOR	lure	n/a	n/a	n/a	1
291.377	0.316655765	MAJESTY	lure	n/a	n/a	n/a	1
291.694	2.016648466	LEAF	long	n/a	n/a	n/a	1
293.71	0.316656572	EXPEDIENCY	lure	n/a	n/a	n/a	1
294.027	0.566655742	UNDERTONE	lure	n/a	n/a	n/a	1
294.594	0.599997976	ADDICTION	lure	n/a	n/a	n/a	1
295.194	0.483320345	MANIFESTO	lure	n/a	n/a	n/a	1
295.677	0.38333014	ARMCHAIR	lure	n/a	n/a	n/a	1
296.06	0.566659136	PACIFIER	lure	n/a	n/a	n/a	1
296.627	0.716661904	COASTER	lure	n/a	n/a	n/a	1
297.344	0.383320184	MERCER	lure	n/a	n/a	n/a	1
297.727	0.549993968	GEOMETRY	lure	n/a	n/a	n/a	1
298.277	0.533366527	SURVEYOR	lure	n/a	n/a	n/a	1
298.81	0.499950373	REMODEL	lure	n/a	n/a	n/a	1
299.31	0.733896839	READERSHIP	lure	n/a	n/a	n/a	1
300.044	1.016081531	BAn/aA	fruit	841	2	2	1
301.06	0.466702214	TUITION	lure	n/a	n/a	n/a	1
301.527	0.583281152	GROWER	lure	n/a	n/a	n/a	1
302.11	0.750045102	BATTERY	lure	n/a	n/a	n/a	1
302.86	0.566603912	OFFICE	lure	n/a	n/a	n/a	1
303.427	0.616657847	ALLERGY	lure	n/a	n/a	n/a	1
304.044	0.450000237	SONGBIRD	lure	n/a	n/a	n/a	1
304.494	0.616697159	SCUT	lure	n/a	n/a	n/a	1
305.11	0.599946028	HOGSHEAD	lure	n/a	n/a	n/a	1
305.71	0.733326424	GOOGLY	lure	n/a	n/a	n/a	1
306.444	0.416661063	STIRRUP	lure	n/a	n/a	n/a	1
306.86	0.53332821	HASHISH	lure	n/a	n/a	n/a	1
307.394	0.533321987	REMOVER	lure	n/a	n/a	n/a	1
307.927	0.699990361	BLOWTORCH	lure	n/a	n/a	n/a	1
308.627	2.016643057	RAKE	long	n/a	n/a	n/a	1
310.643	0.349992789	SOCIETY	lure	n/a	n/a	n/a	1
310.993	0.383330573	MIDLAND	lure	n/a	n/a	n/a	1
311.377	0.399991137	WHALER	lure	n/a	n/a	n/a	1
311.777	0.599989759	GUNBOAT	lure	n/a	n/a	n/a	1
312.377	0.516663	TEn/aT	lure	n/a	n/a	n/a	1
312.893	0.699987161	DELICACY	lure	n/a	n/a	n/a	1
313.593	0.733323146	CAFE	lure	n/a	n/a	n/a	1
314.327	0.616659865	VIOLENCE	lure	n/a	n/a	n/a	1
314.943	0.6166549	PACT	lure	n/a	n/a	n/a	1
315.56	0.649995231	WORKSHOP	lure	n/a	n/a	n/a	1
316.21	0.685954161	TYPEWRITER	lure	n/a	n/a	n/a	1
316.896	1.017578318	STRAWBERRY	fruit	981	2	2	1
317.914	0.5805664	CLAUSE	lure	n/a	n/a	n/a	1
318.494	0.449196791	OATH	lure	n/a	n/a	n/a	1
318.943	0.533323372	TURTLE	lure	n/a	n/a	n/a	1
319.477	0.316659984	SUCCESSION	lure	n/a	n/a	n/a	1
319.793	0.349998539	LYRICIST	lure	n/a	n/a	n/a	1
320.143	0.316659412	PERPLEXITY	lure	n/a	n/a	n/a	1
320.46	0.583327568	IMPUTATION	lure	n/a	n/a	n/a	1
321.043	0.516658978	SOFA	lure	n/a	n/a	n/a	1
321.56	0.533323846	CORONATION	lure	n/a	n/a	n/a	1
322.093	0.549999173	ETERNITY	lure	n/a	n/a	n/a	1
322.643	0.683319217	SIMPLETON	lure	n/a	n/a	n/a	1
323.327	0.733321334	SLED	lure	n/a	n/a	n/a	1
324.06	0.699993933	EXTRACTOR	lure	n/a	n/a	n/a	1
324.76	0.599993797	AUTOCRACY	lure	n/a	n/a	n/a	1
325.36	2.016634254	SKETCH	long	n/a	n/a	n/a	1
327.377	0.649992358	DENTISTRY	lure	n/a	n/a	n/a	1
328.027	0.633404459	CONTORTION	lure	n/a	n/a	n/a	1
328.66	0.502340696	TUGBOAT	lure	n/a	n/a	n/a	1
329.162	0.597565396	TRIAL	lure	n/a	n/a	n/a	1
329.76	0.449993491	CASSEROLE	lure	n/a	n/a	n/a	1
330.21	0.499993819	VIBRATION	lure	n/a	n/a	n/a	1
330.71	0.7166937	REFUGEE	lure	n/a	n/a	n/a	1
331.427	0.383288421	TONGUE	lure	n/a	n/a	n/a	1
331.81	0.566661666	AXLE	lure	n/a	n/a	n/a	1
332.377	0.433327414	CARGO	lure	n/a	n/a	n/a	1
332.81	0.733361648	POSTCODE	lure	n/a	n/a	n/a	1
333.543	0.550013802	INSULATION	lure	n/a	n/a	n/a	1
334.093	1.016589964	MELON	fruit	848	2	2	1
335.11	0.399991264	FOOTSTOOL	lure	n/a	n/a	n/a	1
335.51	0.483329839	RAINFALL	lure	n/a	n/a	n/a	1
335.993	0.383327674	HAREM	lure	n/a	n/a	n/a	1
336.376	0.683323277	LIQUEUR	lure	n/a	n/a	n/a	1
337.06	0.599994728	BOAR	lure	n/a	n/a	n/a	1
337.66	0.533326249	RESILIENCE	lure	n/a	n/a	n/a	1
338.193	0.716657079	HANGOUT	lure	n/a	n/a	n/a	1
338.91	0.749984574	BACKBOARD	lure	n/a	n/a	n/a	1
339.66	0.783326399	FAVORITISM	lure	n/a	n/a	n/a	1
340.443	0.366662054	CHICK	lure	n/a	n/a	n/a	1
340.81	0.71665406	BIOGRAPHY	lure	n/a	n/a	n/a	1
341.526	0.366665249	PROPRIETOR	lure	n/a	n/a	n/a	1
341.893	0.616656883	PENNY	short	n/a	n/a	n/a	1
342.51	0.716654835	PYTHON	lure	n/a	n/a	n/a	1
343.226	0.58332581	ALCHEMY	lure	n/a	n/a	n/a	1
343.81	0.466657161	ONSLAUGHT	lure	n/a	n/a	n/a	1
344.276	0.549995147	RIVERBANK	lure	n/a	n/a	n/a	1
344.826	0.466728516	ADMIRER	lure	n/a	n/a	n/a	1
345.293	0.383259089	SLINGSHOT	lure	n/a	n/a	n/a	1
345.676	0.316660172	RELOCATION	lure	n/a	n/a	n/a	1
345.993	0.749992555	RATION	lure	n/a	n/a	n/a	1
346.743	0.616654995	SUGGESTION	lure	n/a	n/a	n/a	1
347.36	0.349994957	ICEBOAT	lure	n/a	n/a	n/a	1
347.71	0.683329535	READOUT	lure	n/a	n/a	n/a	1
348.393	0.749986255	ODDITY	lure	n/a	n/a	n/a	1
349.143	0.383330749	MELODRAMA	lure	n/a	n/a	n/a	1
349.526	0.366660243	PERSONNEL	lure	n/a	n/a	n/a	1
349.893	2.016635191	PATCH	long	n/a	n/a	n/a	1
351.91	0.583328071	THEOREM	lure	n/a	n/a	n/a	1
352.493	0.583327731	MUSIC	lure	n/a	n/a	n/a	1
353.076	0.333325317	PLAYROOM	lure	n/a	n/a	n/a	1
353.41	0.316660961	SOUTHERNER	lure	n/a	n/a	n/a	1
353.726	0.316661434	EMPATHY	lure	n/a	n/a	n/a	1
354.043	0.366663877	PERFUSION	lure	n/a	n/a	n/a	1
354.41	0.502006442	HATCHERY	lure	n/a	n/a	n/a	1
354.912	0.697979586	IDOL	lure	n/a	n/a	n/a	1
355.61	0.349992952	CRESCENDO	lure	n/a	n/a	n/a	1
355.96	0.699987795	MOMENT	lure	n/a	n/a	n/a	1
356.66	0.433331292	CORNFLOUR	lure	n/a	n/a	n/a	1
357.093	0.416658739	METABOLISM	lure	n/a	n/a	n/a	1
357.51	0.583325651	FOLIAGE	lure	n/a	n/a	n/a	1
358.093	0.749992202	VERACITY	lure	n/a	n/a	n/a	1
358.843	0.61665871	MATTRESS	short	n/a	n/a	n/a	1
359.459	0.383326661	HEIGHT	lure	n/a	n/a	n/a	1
359.843	0.599987113	CONTROLLER	lure	n/a	n/a	n/a	1
360.443	0.649997297	TURNTABLE	lure	n/a	n/a	n/a	1
361.093	0.366659177	ROSETTE	lure	n/a	n/a	n/a	1
361.459	0.466660416	ALBINO	lure	n/a	n/a	n/a	1
361.926	0.699989225	KILO	lure	n/a	n/a	n/a	1
362.626	0.683321542	PONCHO	lure	n/a	n/a	n/a	1
363.309	0.516660343	TIDBIT	lure	n/a	n/a	n/a	1
363.826	0.433331241	PASSAGEWAY	lure	n/a	n/a	n/a	1
364.259	0.533364439	ORCHARD	lure	n/a	n/a	n/a	1
364.793	0.733279746	SURFBOARD	lure	n/a	n/a	n/a	1
365.526	0.383329137	BARBARITY	lure	n/a	n/a	n/a	1
365.909	0.499993773	DAY	lure	n/a	n/a	n/a	1
366.409	0.416661671	ALLOCATION	lure	n/a	n/a	n/a	1
366.826	2.016636062	CONTRACT	long	n/a	n/a	n/a	1
368.843	0.366665178	BOOKEND	lure	n/a	n/a	n/a	1
369.209	0.699988688	OFFENCE	lure	n/a	n/a	n/a	1
369.909	0.616655412	SKYLIGHT	lure	n/a	n/a	n/a	1
370.526	0.699993138	HOSEPIPE	lure	n/a	n/a	n/a	1
371.226	0.416658787	FOOLERY	lure	n/a	n/a	n/a	1
371.643	0.766657195	STARDUST	lure	n/a	n/a	n/a	1
372.409	0.566663045	COMPRESSOR	lure	n/a	n/a	n/a	1
372.976	0.466656374	HAIRLINE	lure	n/a	n/a	n/a	1
373.443	0.749992118	TEPEE	lure	n/a	n/a	n/a	1
374.193	0.666712286	TWINE	lure	n/a	n/a	n/a	1
374.859	0.633332664	NECKTIE	lure	n/a	n/a	n/a	1
375.493	0.616592825	NAIL	short	n/a	n/a	n/a	1
376.109	0.533328432	JARGON	lure	n/a	n/a	n/a	1
376.643	0.383328237	EYETEETH	lure	n/a	n/a	n/a	1
377.026	0.733322555	LEADERSHIP	lure	n/a	n/a	n/a	1
377.759	0.733325257	ZOOLOGY	lure	n/a	n/a	n/a	1
378.493	0.533325584	NOUN	lure	n/a	n/a	n/a	1
379.026	0.666654442	NORM	lure	n/a	n/a	n/a	1
379.693	0.699990734	LAXATIVE	lure	n/a	n/a	n/a	1
380.393	0.366661549	REFRACTION	lure	n/a	n/a	n/a	1
380.759	0.59999217	STORYLINE	lure	n/a	n/a	n/a	1
381.359	0.566659904	MAGNUM	lure	n/a	n/a	n/a	1
381.926	0.466655427	SCOUNDREL	lure	n/a	n/a	n/a	1
382.392	0.533328127	DIALECTIC	lure	n/a	n/a	n/a	1
382.926	0.766658439	FLAGSHIP	lure	n/a	n/a	n/a	1
383.692	0.700044544	DEMANDER	lure	n/a	n/a	n/a	1
384.393	0.616605038	TRUCK	short	n/a	n/a	n/a	1
385.009	0.683377081	GIRLHOOD	lure	n/a	n/a	n/a	1
385.693	0.683265171	SANDMAN	lure	n/a	n/a	n/a	1
386.376	0.316662453	QUIRK	lure	n/a	n/a	n/a	1
386.692	0.800229264	TENEMENT	lure	n/a	n/a	n/a	1
387.493	0.483088678	BEARD	lure	n/a	n/a	n/a	1
387.976	0.7166557	BARBELL	lure	n/a	n/a	n/a	1
388.692	0.449992153	TRIBESMEN	lure	n/a	n/a	n/a	1
389.142	0.516693456	LIMB	lure	n/a	n/a	n/a	1
389.659	0.366630233	FAITH	lure	n/a	n/a	n/a	1
390.026	0.537367099	EDUCATION	lure	n/a	n/a	n/a	1
390.563	0.612617597	INFLUX	lure	n/a	n/a	n/a	1
391.176	0.33332831	BAYONET	lure	n/a	n/a	n/a	1
391.509	0.59999081	WORKMEN	lure	n/a	n/a	n/a	1
392.109	0.433323799	INCENTIVE	lure	n/a	n/a	n/a	1
392.542	0.616659919	LENS	short	n/a	n/a	n/a	1
393.159	0.466663806	BLOOMER	lure	n/a	n/a	n/a	1
393.626	0.716654538	INITIATIVE	lure	n/a	n/a	n/a	1
394.342	0.353231376	RODEO	lure	n/a	n/a	n/a	1
394.696	0.496758843	KINFOLK	lure	n/a	n/a	n/a	1
395.192	0.44999832	WORKDAY	lure	n/a	n/a	n/a	1
395.642	0.749985437	ROUGHRIDER	lure	n/a	n/a	n/a	1
396.392	0.599989159	SASH	lure	n/a	n/a	n/a	1
396.992	0.333327754	COMPILER	lure	n/a	n/a	n/a	1
397.326	0.599994042	STATUTE	lure	n/a	n/a	n/a	1
397.926	0.353844948	COMPOSURE	lure	n/a	n/a	n/a	1
398.279	0.429474686	PRAGMATISM	lure	n/a	n/a	n/a	1
398.709	0.733326966	CAPTIVITY	lure	n/a	n/a	n/a	1
399.442	0.64998731	COWARDICE	lure	n/a	n/a	n/a	1
400.092	0.399996963	WAISTCOAT	lure	n/a	n/a	n/a	1
400.492	0.733323549	AIRFRAME	lure	n/a	n/a	n/a	1
401.226	1.016655744	CHERRY	fruit	635	2	2	1
402.242	0.716650117	ESSENCE	lure	n/a	n/a	n/a	1
402.959	0.56666226	WELLSPRING	lure	n/a	n/a	n/a	1
403.526	0.699990651	DIVINITY	lure	n/a	n/a	n/a	1
404.226	0.549991411	POPULISM	lure	n/a	n/a	n/a	1
404.776	0.483325179	MENTHOL	lure	n/a	n/a	n/a	1
405.259	0.599994022	SIESTA	lure	n/a	n/a	n/a	1
405.859	0.649990547	FRIGHT	lure	n/a	n/a	n/a	1
406.509	0.533326729	ROYALE	lure	n/a	n/a	n/a	1
407.042	0.766656339	POSTAGE	lure	n/a	n/a	n/a	1
407.809	0.67024088	MINUET	lure	n/a	n/a	n/a	1
408.479	0.413074106	BREAKAGE	lure	n/a	n/a	n/a	1
408.892	0.416662577	ELITE	lure	n/a	n/a	n/a	1
409.309	2.049969595	CURB	long	n/a	n/a	n/a	1
411.359	0.549996383	HEMP	lure	n/a	n/a	n/a	1
411.909	0.433323314	CAPRICE	lure	n/a	n/a	n/a	1
412.342	0.466664102	SALESMEN	lure	n/a	n/a	n/a	1
412.809	0.68332016	REBELLION	lure	n/a	n/a	n/a	1
413.492	0.39999659	VIXEN	lure	n/a	n/a	n/a	1
413.892	0.316659791	COSTUME	lure	n/a	n/a	n/a	1
414.209	0.399999694	SAILBOAT	lure	n/a	n/a	n/a	1
414.609	0.483323291	FAUCET	lure	n/a	n/a	n/a	1
415.092	0.666660217	TAXICAB	lure	n/a	n/a	n/a	1
415.759	0.416654647	JUSTICE	lure	n/a	n/a	n/a	1
416.175	0.43333179	BIB	lure	n/a	n/a	n/a	1
416.609	0.749985875	HUMPBACK	lure	n/a	n/a	n/a	1
417.359	0.316663341	ARITHMETIC	lure	n/a	n/a	n/a	1
417.675	2.016644489	TIRE	long	n/a	n/a	n/a	1
419.692	0.749986013	CONVICTION	lure	n/a	n/a	n/a	1
420.442	0.716658159	OBJECTOR	lure	n/a	n/a	n/a	1
421.159	0.683323974	PRAT	lure	n/a	n/a	n/a	1
421.842	0.61665582	APPLICANT	lure	n/a	n/a	n/a	1
422.459	0.417395573	MANKIND	lure	n/a	n/a	n/a	1
422.876	0.499260833	HEADWIND	lure	n/a	n/a	n/a	1
423.375	0.749985417	CAR	lure	n/a	n/a	n/a	1
424.125	0.333331752	WIT	lure	n/a	n/a	n/a	1
424.459	0.633323893	REMINDER	lure	n/a	n/a	n/a	1
425.092	0.499995615	STATUARY	lure	n/a	n/a	n/a	1
425.592	0.516660312	MAGISTRATE	lure	n/a	n/a	n/a	1
426.109	1.016653323	MANGO	fruit	656	2	2	1
427.125	0.716653705	SEAWALL	lure	n/a	n/a	n/a	1
427.842	0.599990384	MOCCASIN	lure	n/a	n/a	n/a	1
428.442	0.383367831	HECK	lure	n/a	n/a	n/a	1
428.825	0.66661946	DUEL	lure	n/a	n/a	n/a	1
429.492	0.416657431	CABARET	lure	n/a	n/a	n/a	1
429.908	0.683326935	AGREEMENT	lure	n/a	n/a	n/a	1
430.592	0.483325547	PROTEGE	lure	n/a	n/a	n/a	1
431.075	0.383326471	TRAPEZE	lure	n/a	n/a	n/a	1
431.458	0.350053562	POPPYCOCK	lure	n/a	n/a	n/a	1
431.809	0.36660765	DOORSTOP	lure	n/a	n/a	n/a	1
432.175	0.549991707	SAILOR	lure	n/a	n/a	n/a	1
432.725	0.633320569	CERVIX	lure	n/a	n/a	n/a	1
433.358	0.599998109	VERTEBRAE	lure	n/a	n/a	n/a	1
433.958	0.616654726	PROCEDURE	lure	n/a	n/a	n/a	1
434.575	0.616658242	ROOT	short	n/a	n/a	n/a	1
435.192	0.350058591	EVANGELIST	lure	n/a	n/a	n/a	1
435.542	0.616590532	MORPHINE	lure	n/a	n/a	n/a	1
436.158	0.566664055	ACCURACY	lure	n/a	n/a	n/a	1
436.725	0.68332117	DECADENCE	lure	n/a	n/a	n/a	1
437.408	0.599995535	INCLINE	lure	n/a	n/a	n/a	1
438.008	0.383327518	ALE	lure	n/a	n/a	n/a	1
438.392	0.433327724	HELICOPTER	lure	n/a	n/a	n/a	1
438.825	0.499987482	RETINA	lure	n/a	n/a	n/a	1
439.325	0.633328385	SEABED	lure	n/a	n/a	n/a	1
439.958	0.499989866	FAIRWAY	lure	n/a	n/a	n/a	1
440.458	0.550047578	GHOUL	lure	n/a	n/a	n/a	1
441.008	0.499937255	GOLDMINE	lure	n/a	n/a	n/a	1
441.508	0.716656708	IMAGERY	lure	n/a	n/a	n/a	1
442.225	0.649995038	DETONATION	lure	n/a	n/a	n/a	1
442.875	0.616659711	APRON	short	n/a	n/a	n/a	1
443.492	0.583766391	CONFIDANT	lure	n/a	n/a	n/a	1
444.075	0.582882921	SEEDLING	lure	n/a	n/a	n/a	1
444.658	0.449993889	REGIMENT	lure	n/a	n/a	n/a	1
445.108	0.383323826	SPATULA	lure	n/a	n/a	n/a	1
445.492	0.733327555	BASSINET	lure	n/a	n/a	n/a	1
446.225	0.449993807	COMPANION	lure	n/a	n/a	n/a	1
446.675	0.366663408	LOYALTY	lure	n/a	n/a	n/a	1
447.042	0.583323831	SUCCESSOR	lure	n/a	n/a	n/a	1
447.625	0.350057188	WHIM	lure	n/a	n/a	n/a	1
447.975	0.666595579	FRICTION	lure	n/a	n/a	n/a	1
448.642	0.483324086	HEARER	lure	n/a	n/a	n/a	1
449.125	0.683323013	REED	lure	n/a	n/a	n/a	1
449.808	0.587875283	DIRECTIVE	lure	n/a	n/a	n/a	1
450.396	0.795436579	FLOORBOARD	lure	n/a	n/a	n/a	1
451.192	0.416661207	SURREALIST	lure	n/a	n/a	n/a	1
451.608	2.016707213	PITCHFORK	long	n/a	n/a	n/a	1
453.625	0.716592244	HANDYMAN	lure	n/a	n/a	n/a	1
454.341	0.500070402	INACTION	lure	n/a	n/a	n/a	1
454.842	0.583250779	SPRITE	lure	n/a	n/a	n/a	1
455.425	0.633372971	SHORTY	lure	n/a	n/a	n/a	1
456.058	0.583275047	PEASANTRY	lure	n/a	n/a	n/a	1
456.641	0.61665376	BIOSPHERE	lure	n/a	n/a	n/a	1
457.258	0.666662281	SWEETHEART	lure	n/a	n/a	n/a	1
457.925	0.683319172	HAYSTACK	lure	n/a	n/a	n/a	1
458.608	0.404222984	GUY	lure	n/a	n/a	n/a	1
459.012	0.532505865	MECHANISM	lure	n/a	n/a	n/a	1
459.545	0.596589049	MUSICIAN	lure	n/a	n/a	n/a	1
460.141	0.433326291	JURY	lure	n/a	n/a	n/a	1
460.575	0.383326841	RINGSIDE	lure	n/a	n/a	n/a	1
460.958	0.316663657	HAYWIRE	lure	n/a	n/a	n/a	1
461.275	0.683321097	OUTCAST	lure	n/a	n/a	n/a	1
461.958	0.649992457	FARMER	lure	n/a	n/a	n/a	1
462.608	0.599988248	SCREE	lure	n/a	n/a	n/a	1
463.208	0.399997792	SAX	lure	n/a	n/a	n/a	1
463.608	0.499991412	COP	lure	n/a	n/a	n/a	1
464.108	0.416658916	LATRINE	lure	n/a	n/a	n/a	1
464.525	0.399999066	SUFFIX	lure	n/a	n/a	n/a	1
464.925	n/a	TEMPERANCE	lure	n/a	n/a	n/a	1