onset	duration	stim	cond	RT	resp	cresp	acc
4.048	0.583325533	DOUBTER	lure	n/a	n/a	n/a	1
4.631	0.533364139	STOPOVER	lure	n/a	n/a	n/a	1
5.164	0.533287677	MILESTONE	lure	n/a	n/a	n/a	1
5.697	0.699987805	STEPLADDER	lure	n/a	n/a	n/a	1
6.397	0.520185128	EVENT	lure	n/a	n/a	n/a	1
6.918	0.696467477	CLINIC	lure	n/a	n/a	n/a	1
7.614	0.64999497	DUSTPAN	lure	n/a	n/a	n/a	1
8.264	0.616656192	NICKEL	short	n/a	n/a	n/a	1
8.881	0.616651623	ALLUSION	lure	n/a	n/a	n/a	1
9.497	0.433329616	WEEK	lure	n/a	n/a	n/a	1
9.931	0.599990245	GUARDIAN	lure	n/a	n/a	n/a	1
10.531	0.516660937	CHEMISTRY	lure	n/a	n/a	n/a	1
11.047	0.666655728	FAILURE	lure	n/a	n/a	n/a	1
11.714	0.549999496	IDEOLOGIST	lure	n/a	n/a	n/a	1
12.264	0.51665548	FEEDBACK	lure	n/a	n/a	n/a	1
12.781	0.333328725	BATON	lure	n/a	n/a	n/a	1
13.114	0.716657341	GORILLA	lure	n/a	n/a	n/a	1
13.831	0.466660634	COUPLET	lure	n/a	n/a	n/a	1
14.297	0.666659261	PORTION	lure	n/a	n/a	n/a	1
14.964	0.583324949	POACHER	lure	n/a	n/a	n/a	1
15.547	0.366658856	TABULATION	lure	n/a	n/a	n/a	1
15.914	0.716654706	KICKOFF	lure	n/a	n/a	n/a	1
16.631	1.016651155	PINEAPPLE	fruit	911	2	2	1
17.647	0.433326125	DIRT	lure	n/a	n/a	n/a	1
18.081	0.400002618	PIPELINE	lure	n/a	n/a	n/a	1
18.481	0.568856599	MANUSCRIPT	lure	n/a	n/a	n/a	1
19.049	0.531127632	CARPAL	lure	n/a	n/a	n/a	1
19.581	0.400043354	OUTBREAK	lure	n/a	n/a	n/a	1
19.981	0.566601597	MUD	lure	n/a	n/a	n/a	1
20.547	0.466664239	SEGA	lure	n/a	n/a	n/a	1
21.014	0.716653881	AMUSEMENT	lure	n/a	n/a	n/a	1
21.731	0.316736973	VAGABOND	lure	n/a	n/a	n/a	1
22.047	0.583254451	HITCHHIKER	lure	n/a	n/a	n/a	1
22.631	0.49999277	PUFFBALL	lure	n/a	n/a	n/a	1
23.131	0.666659152	JUBILEE	lure	n/a	n/a	n/a	1
23.797	0.633322345	JEWELER	lure	n/a	n/a	n/a	1
24.431	0.549989785	HERNIA	lure	n/a	n/a	n/a	1
24.981	2.016644059	CURB	long	n/a	n/a	n/a	1
26.997	0.516655979	LANDOWNER	lure	n/a	n/a	n/a	1
27.514	0.616661021	METHANOL	lure	n/a	n/a	n/a	1
28.131	0.533320216	RAINBOW	lure	n/a	n/a	n/a	1
28.664	0.36666498	LETTERMEN	lure	n/a	n/a	n/a	1
29.03	0.516659623	DYNAMO	lure	n/a	n/a	n/a	1
29.547	0.516655927	SHORELINE	lure	n/a	n/a	n/a	1
30.064	0.333335223	WORKPIECE	lure	n/a	n/a	n/a	1
30.397	0.599991663	PREDICTOR	lure	n/a	n/a	n/a	1
30.997	0.499990632	SKETCHPAD	lure	n/a	n/a	n/a	1
31.497	0.650053302	HEATWAVE	lure	n/a	n/a	n/a	1
32.147	0.716595713	NEARSIDE	lure	n/a	n/a	n/a	1
32.864	0.649988421	THIMBLE	lure	n/a	n/a	n/a	1
33.514	2.016642751	LEAF	long	n/a	n/a	n/a	1
35.53	0.350076897	FUNERAL	lure	n/a	n/a	n/a	1
35.88	0.666576429	SELECTION	lure	n/a	n/a	n/a	1
36.547	0.450047879	TRANSPORT	lure	n/a	n/a	n/a	1
36.997	0.716598548	CLOAKROOM	lure	n/a	n/a	n/a	1
37.714	0.383387871	GYM	lure	n/a	n/a	n/a	1
38.097	0.416597053	INDULGENCE	lure	n/a	n/a	n/a	1
38.514	0.383390553	PARAKEET	lure	n/a	n/a	n/a	1
38.897	0.416648713	POPULATION	lure	n/a	n/a	n/a	1
39.314	0.654401589	WALKOUT	lure	n/a	n/a	n/a	1
39.968	0.712200871	REJECTION	lure	n/a	n/a	n/a	1
40.68	0.66665518	OXEN	lure	n/a	n/a	n/a	1
41.347	0.399997036	DEFECTOR	lure	n/a	n/a	n/a	1
41.747	2.016634653	SKETCH	long	n/a	n/a	n/a	1
43.764	0.366663201	DUNGEON	lure	n/a	n/a	n/a	1
44.13	0.683320353	MASOn/aY	lure	n/a	n/a	n/a	1
44.814	0.333331691	WOMBAT	lure	n/a	n/a	n/a	1
45.147	0.350054366	SAC	lure	n/a	n/a	n/a	1
45.497	0.483268934	CURATOR	lure	n/a	n/a	n/a	1
45.98	0.366662553	PERCENTILE	lure	n/a	n/a	n/a	1
46.347	0.683679952	RECOMPENSE	lure	n/a	n/a	n/a	1
47.031	0.586569926	AIRLINE	lure	n/a	n/a	n/a	1
47.617	0.500564146	RAGTAG	lure	n/a	n/a	n/a	1
48.118	0.662483517	NUCLEI	lure	n/a	n/a	n/a	1
48.78	0.733357166	PHARMACIST	lure	n/a	n/a	n/a	1
49.514	0.483288143	INITIATION	lure	n/a	n/a	n/a	1
49.997	0.616660107	ROOT	short	n/a	n/a	n/a	1
50.614	0.599991152	STAG	lure	n/a	n/a	n/a	1
51.214	0.416708215	SONAR	lure	n/a	n/a	n/a	1
51.63	0.433284369	PESSIMIST	lure	n/a	n/a	n/a	1
52.064	0.433326794	FALLOFF	lure	n/a	n/a	n/a	1
52.497	0.516655088	HARVESTER	lure	n/a	n/a	n/a	1
53.013	0.71670305	SCROOGE	lure	n/a	n/a	n/a	1
53.73	0.716610227	WHISTLE	lure	n/a	n/a	n/a	1
54.447	0.649997158	AFFECTION	lure	n/a	n/a	n/a	1
55.097	0.749984068	OCEAN	lure	n/a	n/a	n/a	1
55.847	0.450040903	SLIPKNOT	lure	n/a	n/a	n/a	1
56.297	0.483282495	FIREARM	lure	n/a	n/a	n/a	1
56.78	0.433438396	GRAD	lure	n/a	n/a	n/a	1
57.214	0.616549377	ADVISER	lure	n/a	n/a	n/a	1
57.83	0.350039225	FLAGSTAFF	lure	n/a	n/a	n/a	1
58.18	2.01659514	CONTRACT	long	n/a	n/a	n/a	1
60.197	0.366658907	POLLUTANT	lure	n/a	n/a	n/a	1
60.563	0.666713975	TAB	lure	n/a	n/a	n/a	1
61.23	0.450048558	CUISINE	lure	n/a	n/a	n/a	1
61.68	0.499880585	CLIMATE	lure	n/a	n/a	n/a	1
62.18	0.533327803	PERCENT	lure	n/a	n/a	n/a	1
62.713	0.449991363	RESCUER	lure	n/a	n/a	n/a	1
63.163	0.383329741	CEREMONY	lure	n/a	n/a	n/a	1
63.547	0.549990291	CEREBRUM	lure	n/a	n/a	n/a	1
64.097	0.333387506	SPROCKET	lure	n/a	n/a	n/a	1
64.43	0.683265839	CHRONICLE	lure	n/a	n/a	n/a	1
65.113	0.349997952	CAROUSEL	lure	n/a	n/a	n/a	1
65.463	0.433327015	AUTOGRAPH	lure	n/a	n/a	n/a	1
65.897	0.583324626	SLOAN	lure	n/a	n/a	n/a	1
66.48	0.616658796	PENNY	short	n/a	n/a	n/a	1
67.097	0.750051056	RUNWAY	lure	n/a	n/a	n/a	1
67.847	0.533267173	SUBSTANCE	lure	n/a	n/a	n/a	1
68.38	0.349993062	DISSUASION	lure	n/a	n/a	n/a	1
68.73	0.766717286	GIVEAWAY	lure	n/a	n/a	n/a	1
69.497	0.41659567	DIME	lure	n/a	n/a	n/a	1
69.913	0.721417028	SNOWSHOE	lure	n/a	n/a	n/a	1
70.635	0.378568065	COMMITTAL	lure	n/a	n/a	n/a	1
71.013	0.483326533	COCKTAIL	lure	n/a	n/a	n/a	1
71.497	0.466706641	FUSION	lure	n/a	n/a	n/a	1
71.963	0.333279249	PARKHOUSE	lure	n/a	n/a	n/a	1
72.297	0.733324115	EXPLOSION	lure	n/a	n/a	n/a	1
73.03	0.649992145	HAMBURGER	lure	n/a	n/a	n/a	1
73.68	0.433375513	COUPLER	lure	n/a	n/a	n/a	1
74.113	0.516616544	FORMAT	lure	n/a	n/a	n/a	1
74.63	1.016649383	MELON	fruit	792	2	2	1
75.647	0.48332343	ACROBAT	lure	n/a	n/a	n/a	1
76.13	0.333330246	CRYBABY	lure	n/a	n/a	n/a	1
76.463	0.483326295	CHAIRWOMAN	lure	n/a	n/a	n/a	1
76.946	0.333329915	LATCHKEY	lure	n/a	n/a	n/a	1
77.28	0.666700975	GASKET	lure	n/a	n/a	n/a	1
77.947	0.566616791	AUTUMN	lure	n/a	n/a	n/a	1
78.513	0.399995269	DANDELION	lure	n/a	n/a	n/a	1
78.913	0.366653431	SHORTBREAD	lure	n/a	n/a	n/a	1
79.28	0.666661777	CAPABILITY	lure	n/a	n/a	n/a	1
79.946	0.483327114	VALVE	lure	n/a	n/a	n/a	1
80.43	0.683381188	HALLWAY	lure	n/a	n/a	n/a	1
81.113	0.616600695	EMPORIUM	lure	n/a	n/a	n/a	1
81.73	0.499993613	DECREASE	lure	n/a	n/a	n/a	1
82.23	0.333330518	FACSIMILE	lure	n/a	n/a	n/a	1
82.563	2.016639561	PATCH	long	n/a	n/a	n/a	1
84.58	0.499989513	CANYON	lure	n/a	n/a	n/a	1
85.08	0.616662788	GUITARIST	lure	n/a	n/a	n/a	1
85.696	0.433324454	DOOR	lure	n/a	n/a	n/a	1
86.13	0.483323738	BACKGROUND	lure	n/a	n/a	n/a	1
86.613	0.46665823	EMERGENCE	lure	n/a	n/a	n/a	1
87.08	0.400368204	FEAT	lure	n/a	n/a	n/a	1
87.48	0.566336511	SECLUSION	lure	n/a	n/a	n/a	1
88.046	0.699943714	METEOROID	lure	n/a	n/a	n/a	1
88.746	0.71665201	SPIRE	lure	n/a	n/a	n/a	1
89.463	0.599991697	GOO	lure	n/a	n/a	n/a	1
90.063	0.503415861	COMPONENT	lure	n/a	n/a	n/a	1
90.566	0.613565604	RECITAL	lure	n/a	n/a	n/a	1
91.18	0.616333478	NAIL	short	n/a	n/a	n/a	1
91.796	0.649986662	DITTY	lure	n/a	n/a	n/a	1
92.446	0.466663977	GOODWILL	lure	n/a	n/a	n/a	1
92.913	0.466658195	CONFERENCE	lure	n/a	n/a	n/a	1
93.38	0.449993834	FEMININITY	lure	n/a	n/a	n/a	1
93.83	0.616661433	SOURDOUGH	lure	n/a	n/a	n/a	1
94.446	0.716649423	CATARACT	lure	n/a	n/a	n/a	1
95.163	0.4166628	Un/aEST	lure	n/a	n/a	n/a	1
95.58	0.683326287	METEORITE	lure	n/a	n/a	n/a	1
96.263	0.41666193	DETENTION	lure	n/a	n/a	n/a	1
96.68	0.670077385	MOTH	lure	n/a	n/a	n/a	1
97.35	0.51323918	SCAR	lure	n/a	n/a	n/a	1
97.863	0.533326895	CARPENTRY	lure	n/a	n/a	n/a	1
98.396	0.566660115	INSANITY	lure	n/a	n/a	n/a	1
98.963	0.633322462	REDEMPTION	lure	n/a	n/a	n/a	1
99.596	0.61665334	TRUCK	short	n/a	n/a	n/a	1
100.213	0.583325382	CHAIRMAN	lure	n/a	n/a	n/a	1
100.796	0.533330196	ANARCHY	lure	n/a	n/a	n/a	1
101.329	0.616714788	MOONLIGHT	lure	n/a	n/a	n/a	1
101.946	0.499935596	TWILIGHT	lure	n/a	n/a	n/a	1
102.446	0.433327042	MATRIX	lure	n/a	n/a	n/a	1
102.879	0.483324942	KANGAROO	lure	n/a	n/a	n/a	1
103.363	0.633325372	HORSEHAIR	lure	n/a	n/a	n/a	1
103.996	0.516654641	BULLOCK	lure	n/a	n/a	n/a	1
104.513	0.316663986	REACTION	lure	n/a	n/a	n/a	1
104.829	0.449997867	MOPED	lure	n/a	n/a	n/a	1
105.279	0.750048445	FONT	lure	n/a	n/a	n/a	1
106.029	0.599928099	HANGUP	lure	n/a	n/a	n/a	1
106.629	0.549993997	CHIC	lure	n/a	n/a	n/a	1
107.179	0.583329313	SAUCE	lure	n/a	n/a	n/a	1
107.763	0.616657956	TIMBER	short	n/a	n/a	n/a	1
108.379	0.733320938	CRUTCH	lure	n/a	n/a	n/a	1
109.113	0.433327363	MOURNER	lure	n/a	n/a	n/a	1
109.546	0.74999032	PENn/aT	lure	n/a	n/a	n/a	1
110.296	0.733369241	NOBLEMAN	lure	n/a	n/a	n/a	1
111.029	0.549945394	BINDER	lure	n/a	n/a	n/a	1
111.579	0.333329048	BEDSIDE	lure	n/a	n/a	n/a	1
111.913	0.499993946	PERMIT	lure	n/a	n/a	n/a	1
112.413	0.716657154	GOVERNOR	lure	n/a	n/a	n/a	1
113.129	0.399995294	PEn/aCE	lure	n/a	n/a	n/a	1
113.529	0.716658633	LASSIE	lure	n/a	n/a	n/a	1
114.246	0.783318912	HOSIERY	lure	n/a	n/a	n/a	1
115.029	0.649990379	SNOBBERY	lure	n/a	n/a	n/a	1
115.679	0.483325964	LEXICON	lure	n/a	n/a	n/a	1
116.163	1.01665072	ORANGE	fruit	n/a	n/a	2	0
117.179	0.733321107	BUN	lure	n/a	n/a	n/a	1
117.913	0.366669611	PROCESSOR	lure	n/a	n/a	n/a	1
118.279	0.70172395	DEFAMATION	lure	n/a	n/a	n/a	1
118.981	0.731589385	FOOTHILL	lure	n/a	n/a	n/a	1
119.713	0.649991874	SMOKESTACK	lure	n/a	n/a	n/a	1
120.363	0.48332437	RACETRACK	lure	n/a	n/a	n/a	1
120.846	0.683321055	RHUBARB	lure	n/a	n/a	n/a	1
121.529	0.73332468	COMPLICITY	lure	n/a	n/a	n/a	1
122.263	0.516659715	OCTANE	lure	n/a	n/a	n/a	1
122.779	0.449987163	PLATOON	lure	n/a	n/a	n/a	1
123.229	0.383333003	DEDUCTION	lure	n/a	n/a	n/a	1
123.613	0.533328369	WELDER	lure	n/a	n/a	n/a	1
124.146	2.01664106	PITCHFORK	long	n/a	n/a	n/a	1
126.162	0.699987521	MESSAGE	lure	n/a	n/a	n/a	1
126.862	0.59998774	HANDBRAKE	lure	n/a	n/a	n/a	1
127.462	0.433330236	OPIUM	lure	n/a	n/a	n/a	1
127.896	0.566657692	BRAZIER	lure	n/a	n/a	n/a	1
128.462	0.549990185	PROJECTOR	lure	n/a	n/a	n/a	1
129.012	0.33333384	INLET	lure	n/a	n/a	n/a	1
129.346	0.633319158	GENDER	lure	n/a	n/a	n/a	1
129.979	0.333330552	WATCHDOG	lure	n/a	n/a	n/a	1
130.312	0.683324521	AORTA	lure	n/a	n/a	n/a	1
130.996	0.599994109	PUZZLEMENT	lure	n/a	n/a	n/a	1
131.596	0.349995353	RIFLEMAN	lure	n/a	n/a	n/a	1
131.946	2.016640162	PLANK	long	n/a	n/a	n/a	1
133.962	0.349990804	REUNION	lure	n/a	n/a	n/a	1
134.312	0.416661547	FLUORIDE	lure	n/a	n/a	n/a	1
134.729	0.416661663	BUZZARD	lure	n/a	n/a	n/a	1
135.146	0.616655928	GAG	lure	n/a	n/a	n/a	1
135.762	0.549996672	BOUGH	lure	n/a	n/a	n/a	1
136.312	0.633322587	RAPIDITY	lure	n/a	n/a	n/a	1
136.946	0.650056604	ORCHID	lure	n/a	n/a	n/a	1
137.596	0.449927085	EXPECTANCE	lure	n/a	n/a	n/a	1
138.046	0.383328501	URBANISM	lure	n/a	n/a	n/a	1
138.429	0.416664038	ARBOR	lure	n/a	n/a	n/a	1
138.846	0.466656375	PATRIMONY	lure	n/a	n/a	n/a	1
139.312	0.666657639	PARCEL	lure	n/a	n/a	n/a	1
139.979	0.599990056	STARFISH	lure	n/a	n/a	n/a	1
140.579	2.016639767	FOSSIL	long	n/a	n/a	n/a	1
142.596	0.537944564	SUNDIAL	lure	n/a	n/a	n/a	1
143.134	0.512042821	DALE	lure	n/a	n/a	n/a	1
143.646	0.349994689	KIN	lure	n/a	n/a	n/a	1
143.996	0.399993397	PEARL	lure	n/a	n/a	n/a	1
144.396	0.533324336	ORIOLE	lure	n/a	n/a	n/a	1
144.929	0.383330174	PRONOUN	lure	n/a	n/a	n/a	1
145.312	0.366658955	MIDST	lure	n/a	n/a	n/a	1
145.679	0.466661548	SHRINKAGE	lure	n/a	n/a	n/a	1
146.146	0.649988935	MONARCH	lure	n/a	n/a	n/a	1
146.796	0.549994191	BAPTISM	lure	n/a	n/a	n/a	1
147.346	0.53332606	BIOGRAPHER	lure	n/a	n/a	n/a	1
147.879	0.499993475	SPRINGTIME	lure	n/a	n/a	n/a	1
148.379	0.433328391	LOOPHOLE	lure	n/a	n/a	n/a	1
148.812	0.616656459	APRON	short	n/a	n/a	n/a	1
149.429	0.349991184	ELECTION	lure	n/a	n/a	n/a	1
149.779	0.733325739	RUMINATION	lure	n/a	n/a	n/a	1
150.512	0.416664062	LIBATION	lure	n/a	n/a	n/a	1
150.929	0.599989906	WOMENFOLK	lure	n/a	n/a	n/a	1
151.529	0.516660149	EXTINCTION	lure	n/a	n/a	n/a	1
152.045	0.366662255	FESTIVITY	lure	n/a	n/a	n/a	1
152.412	0.567995728	FISHPOND	lure	n/a	n/a	n/a	1
152.98	0.481987574	NATION	lure	n/a	n/a	n/a	1
153.462	0.383407319	DAD	lure	n/a	n/a	n/a	1
153.845	0.616579194	FORTITUDE	lure	n/a	n/a	n/a	1
154.462	0.649990878	SCRUTINY	lure	n/a	n/a	n/a	1
155.112	0.583326506	PERCENTAGE	lure	n/a	n/a	n/a	1
155.695	0.566661952	FLUIDITY	lure	n/a	n/a	n/a	1
156.262	0.66665418	VAMP	lure	n/a	n/a	n/a	1
156.929	0.583320808	WINDER	lure	n/a	n/a	n/a	1
157.512	1.016655005	KIWI	fruit	765	2	2	1
158.529	0.549993403	QUARK	lure	n/a	n/a	n/a	1
159.079	0.566718901	FREEDMAN	lure	n/a	n/a	n/a	1
159.645	0.399930389	MISTRIAL	lure	n/a	n/a	n/a	1
160.045	0.700037959	PANTRY	lure	n/a	n/a	n/a	1
160.745	0.433284251	COLONY	lure	n/a	n/a	n/a	1
161.179	0.433326684	LEEWAY	lure	n/a	n/a	n/a	1
161.612	0.733327475	WIZARD	lure	n/a	n/a	n/a	1
162.345	0.699985358	NIGHT	lure	n/a	n/a	n/a	1
163.045	0.616662903	HOPSCOTCH	lure	n/a	n/a	n/a	1
163.662	0.583323701	PROCTOR	lure	n/a	n/a	n/a	1
164.245	0.649990652	MISFORTUNE	lure	n/a	n/a	n/a	1
164.895	0.366659964	TAXATION	lure	n/a	n/a	n/a	1
165.262	0.416660612	DOZEN	lure	n/a	n/a	n/a	1
165.679	1.017448539	BLACKBERRY	fruit	807	2	2	1
166.696	0.515862086	SHELF	lure	n/a	n/a	n/a	1
167.212	0.683326776	TAILSPIN	lure	n/a	n/a	n/a	1
167.895	0.566701351	OVERPRINT	lure	n/a	n/a	n/a	1
168.462	0.549947286	ELOQUENCE	lure	n/a	n/a	n/a	1
169.012	0.604499791	UPSTART	lure	n/a	n/a	n/a	1
169.616	0.312216714	TEENAGER	lure	n/a	n/a	n/a	1
169.929	0.620903858	STRAGGLER	lure	n/a	n/a	n/a	1
170.549	0.362567734	MOUSETRAP	lure	n/a	n/a	n/a	1
170.912	0.599838445	CHUTE	lure	n/a	n/a	n/a	1
171.512	0.699998117	COWARD	lure	n/a	n/a	n/a	1
172.212	0.499919194	HICK	lure	n/a	n/a	n/a	1
172.712	0.749994382	LAWSUIT	lure	n/a	n/a	n/a	1
173.462	0.685588636	ANTENNAE	lure	n/a	n/a	n/a	1
174.147	1.047717753	KIWI	fruit	794	2	2	1
175.195	0.43332875	STARLING	lure	n/a	n/a	n/a	1
175.628	0.650030035	BONSAI	lure	n/a	n/a	n/a	1
176.278	0.599952917	BODYWORK	lure	n/a	n/a	n/a	1
176.878	0.466661623	WISDOM	lure	n/a	n/a	n/a	1
177.345	0.666657296	CHIMP	lure	n/a	n/a	n/a	1
178.012	0.599992322	SANDALWOOD	lure	n/a	n/a	n/a	1
178.612	0.583324461	EXTREMISM	lure	n/a	n/a	n/a	1
179.195	0.733321242	VACCINE	lure	n/a	n/a	n/a	1
179.928	0.599995191	INTRICACY	lure	n/a	n/a	n/a	1
180.528	0.749989013	EVERYTHING	lure	n/a	n/a	n/a	1
181.278	0.616656377	STRETCHER	lure	n/a	n/a	n/a	1
181.895	0.58332428	SUNLIGHT	lure	n/a	n/a	n/a	1
182.478	0.616657718	SOAP	short	n/a	n/a	n/a	1
183.095	0.699992218	TEXTBOOK	lure	n/a	n/a	n/a	1
183.795	0.616657204	STATESMAN	lure	n/a	n/a	n/a	1
184.412	0.699989978	GEYSER	lure	n/a	n/a	n/a	1
185.112	0.566656103	SALTER	lure	n/a	n/a	n/a	1
185.678	0.616658628	BOAT	lure	n/a	n/a	n/a	1
186.295	0.549991806	JELLO	lure	n/a	n/a	n/a	1
186.845	0.583325584	COMA	lure	n/a	n/a	n/a	1
187.428	0.699990002	PRINTOUT	lure	n/a	n/a	n/a	1
188.128	0.716662846	MAKER	lure	n/a	n/a	n/a	1
188.845	0.666656185	SARCASM	lure	n/a	n/a	n/a	1
189.512	0.433322591	SCUBA	lure	n/a	n/a	n/a	1
189.945	0.383331441	COMEDOWN	lure	n/a	n/a	n/a	1
190.328	0.399995615	OPERATION	lure	n/a	n/a	n/a	1
190.728	2.016638909	RAKE	long	n/a	n/a	n/a	1
192.745	0.499992656	GALAXY	lure	n/a	n/a	n/a	1
193.245	0.499991021	BUFFOON	lure	n/a	n/a	n/a	1
193.745	0.599992227	GUIDEBOOK	lure	n/a	n/a	n/a	1
194.345	0.349992181	DREAMWORLD	lure	n/a	n/a	n/a	1
194.695	0.333332155	CONFESSION	lure	n/a	n/a	n/a	1
195.028	0.733321464	DISCIPLE	lure	n/a	n/a	n/a	1
195.761	0.566662782	SMUDGE	lure	n/a	n/a	n/a	1
196.328	0.766655516	HAWKER	lure	n/a	n/a	n/a	1
197.095	0.399991954	TECHNICIAN	lure	n/a	n/a	n/a	1
197.495	0.483325779	VARIANCE	lure	n/a	n/a	n/a	1
197.978	0.566659065	POMPOM	lure	n/a	n/a	n/a	1
198.545	0.749991609	TUB	lure	n/a	n/a	n/a	1
199.295	0.649991306	MATTRESS	short	n/a	n/a	n/a	1
199.945	0.36666152	RECTIFIER	lure	n/a	n/a	n/a	1
200.311	0.599988349	DRONE	lure	n/a	n/a	n/a	1
200.911	0.466662206	BOOKLET	lure	n/a	n/a	n/a	1
201.378	0.59999315	LEADER	lure	n/a	n/a	n/a	1
201.978	0.549989523	FRIAR	lure	n/a	n/a	n/a	1
202.528	0.699990338	FOREBEAR	lure	n/a	n/a	n/a	1
203.228	0.499991442	TREADMILL	lure	n/a	n/a	n/a	1
203.728	0.449995687	PINTO	lure	n/a	n/a	n/a	1
204.178	0.583324505	PRETENDER	lure	n/a	n/a	n/a	1
204.761	0.583329822	CLUBHOUSE	lure	n/a	n/a	n/a	1
205.345	0.483322606	PATRIOTISM	lure	n/a	n/a	n/a	1
205.828	0.533325936	BROCHURE	lure	n/a	n/a	n/a	1
206.361	0.466661743	INACCURACY	lure	n/a	n/a	n/a	1
206.828	0.3333267	ROWER	lure	n/a	n/a	n/a	1
207.161	2.016638627	TIRE	long	n/a	n/a	n/a	1
209.178	0.433325184	RIVERSIDE	lure	n/a	n/a	n/a	1
209.611	0.316668702	WAREHOUSE	lure	n/a	n/a	n/a	1
209.928	0.366656882	THISTLE	lure	n/a	n/a	n/a	1
210.295	0.499995334	PRETEXT	lure	n/a	n/a	n/a	1
210.795	0.699989736	PINUP	lure	n/a	n/a	n/a	1
211.495	0.38332717	PROPRIETY	lure	n/a	n/a	n/a	1
211.878	0.51666183	PEELER	lure	n/a	n/a	n/a	1
212.395	0.516654265	SHEEN	lure	n/a	n/a	n/a	1
212.911	0.383338346	MOTORCYCLE	lure	n/a	n/a	n/a	1
213.295	0.466649498	ACADEMY	lure	n/a	n/a	n/a	1
213.761	0.666660014	MINORITY	lure	n/a	n/a	n/a	1
214.428	0.316665013	CYNICISM	lure	n/a	n/a	n/a	1
214.745	0.633324478	GRINDER	lure	n/a	n/a	n/a	1
215.378	0.616654928	LENS	short	n/a	n/a	n/a	1
215.995	0.549996324	UNIFORMITY	lure	n/a	n/a	n/a	1
216.545	0.333326253	SPECIALIST	lure	n/a	n/a	n/a	1
216.878	0.58332422	ARISTOCRAT	lure	n/a	n/a	n/a	1
217.461	0.416659431	PARAFFIN	lure	n/a	n/a	n/a	1
217.878	0.399997382	RENEGADE	lure	n/a	n/a	n/a	1
218.278	0.583323607	VERSE	lure	n/a	n/a	n/a	1
218.861	0.566661046	VICTOR	lure	n/a	n/a	n/a	1
219.428	0.38332395	DUMBBELL	lure	n/a	n/a	n/a	1
219.811	0.31666625	PUN	lure	n/a	n/a	n/a	1
220.128	0.416659046	CARD	lure	n/a	n/a	n/a	1
220.544	0.566715451	SUn/aAY	lure	n/a	n/a	n/a	1
221.111	0.733270392	FARCE	lure	n/a	n/a	n/a	1
221.844	0.449989994	ROADWAY	lure	n/a	n/a	n/a	1
222.294	0.716654578	DISARRAY	lure	n/a	n/a	n/a	1
223.011	0.416715027	OBSERVANCE	lure	n/a	n/a	n/a	1
223.428	0.616606672	GENTRY	lure	n/a	n/a	n/a	1
224.044	0.583326287	MOVIE	lure	n/a	n/a	n/a	1
224.628	0.716657245	CONSCIENCE	lure	n/a	n/a	n/a	1
225.344	0.466660959	VERTEX	lure	n/a	n/a	n/a	1
225.811	0.700028582	OBJECTION	lure	n/a	n/a	n/a	1
226.511	0.533338215	KEYSTONE	lure	n/a	n/a	n/a	1
227.044	n/a	WATERSPOUT	lure	n/a	n/a	n/a	1
238.014	0.480118854	MISUSE	lure	n/a	n/a	n/a	1
238.494	0.366664881	MACK	lure	n/a	n/a	n/a	1
238.861	0.533327327	SPORTSMEN	lure	n/a	n/a	n/a	1
239.394	0.483320019	APARTHEID	lure	n/a	n/a	n/a	1
239.878	0.466665914	CRITERION	lure	n/a	n/a	n/a	1
240.344	0.433326639	BUTCHERY	lure	n/a	n/a	n/a	1
240.778	0.320068397	EXPEDITION	lure	n/a	n/a	n/a	1
241.098	0.429926173	NOSTRIL	lure	n/a	n/a	n/a	1
241.528	2.016637889	TIRE	long	n/a	n/a	n/a	1
243.544	0.483322225	LADYBUG	lure	n/a	n/a	n/a	1
244.027	0.466665633	CONCLUSION	lure	n/a	n/a	n/a	1
244.494	0.616647672	DEPENDENCY	lure	n/a	n/a	n/a	1
245.111	0.416668172	WARDROBE	lure	n/a	n/a	n/a	1
245.527	0.649983637	RUNNER	lure	n/a	n/a	n/a	1
246.177	0.333328624	SOCIALITY	lure	n/a	n/a	n/a	1
246.511	0.550000188	OVERTIME	lure	n/a	n/a	n/a	1
247.061	0.73332542	URCHIN	lure	n/a	n/a	n/a	1
247.794	0.58331961	MORTAR	lure	n/a	n/a	n/a	1
248.377	0.366657198	DISQUIET	lure	n/a	n/a	n/a	1
248.744	0.48344446	DICE	lure	n/a	n/a	n/a	1
249.228	0.366543089	REEF	lure	n/a	n/a	n/a	1
249.594	2.016649118	CURB	long	n/a	n/a	n/a	1
251.611	0.399988765	PHYSICIST	lure	n/a	n/a	n/a	1
252.011	0.566663238	HEADMAN	lure	n/a	n/a	n/a	1
252.577	0.349985916	CASHIER	lure	n/a	n/a	n/a	1
252.927	0.566699215	GUNMAN	lure	n/a	n/a	n/a	1
253.494	0.316625488	ONLOOKER	lure	n/a	n/a	n/a	1
253.811	0.316659028	WATCHBAND	lure	n/a	n/a	n/a	1
254.127	0.737414567	BRONZE	lure	n/a	n/a	n/a	1
254.865	0.762565013	SADDLEBAG	lure	n/a	n/a	n/a	1
255.627	0.483384936	MILKMAID	lure	n/a	n/a	n/a	1
256.111	0.366603487	TOOTHPASTE	lure	n/a	n/a	n/a	1
256.477	0.61670273	SLOWPOKE	lure	n/a	n/a	n/a	1
257.094	0.699945073	FINGERNAIL	lure	n/a	n/a	n/a	1
257.794	0.616667044	NAIL	short	n/a	n/a	n/a	1
258.411	0.750051517	MONEY	lure	n/a	n/a	n/a	1
259.161	0.56659129	PATRON	lure	n/a	n/a	n/a	1
259.727	0.733329069	PUMPKIN	lure	n/a	n/a	n/a	1
260.461	0.316655356	FLUX	lure	n/a	n/a	n/a	1
260.777	0.766659008	CAROL	lure	n/a	n/a	n/a	1
261.544	0.416658451	LOUGH	lure	n/a	n/a	n/a	1
261.961	0.518450418	SCHOOLROOM	lure	n/a	n/a	n/a	1
262.479	0.564874686	LEGALISM	lure	n/a	n/a	n/a	1
263.044	0.533325053	REGISTRY	lure	n/a	n/a	n/a	1
263.577	0.699990884	EPICENTER	lure	n/a	n/a	n/a	1
264.277	0.749988966	ACTUALITY	lure	n/a	n/a	n/a	1
265.027	0.53335743	PHARYNX	lure	n/a	n/a	n/a	1
265.561	0.666623585	INADEQUACY	lure	n/a	n/a	n/a	1
266.227	1.016655333	BLACKBERRY	fruit	610	2	2	1
267.244	0.749985073	REVENUE	lure	n/a	n/a	n/a	1
267.994	0.399999091	CHECKLIST	lure	n/a	n/a	n/a	1
268.394	0.333327592	TRICOLOR	lure	n/a	n/a	n/a	1
268.727	0.616654069	SAVANNA	lure	n/a	n/a	n/a	1
269.344	0.349998894	PUDDLE	lure	n/a	n/a	n/a	1
269.694	0.71669901	DUET	lure	n/a	n/a	n/a	1
270.411	0.5333197	POTPOURRI	lure	n/a	n/a	n/a	1
270.944	0.716653268	ENEMY	lure	n/a	n/a	n/a	1
271.66	0.466622794	COMMISSARY	lure	n/a	n/a	n/a	1
272.127	0.649993083	FORT	lure	n/a	n/a	n/a	1
272.777	0.766742108	ADAPTATION	lure	n/a	n/a	n/a	1
273.544	0.549901285	PARAGON	lure	n/a	n/a	n/a	1
274.094	0.599993781	TUSK	lure	n/a	n/a	n/a	1
274.694	0.616664581	APRON	short	n/a	n/a	n/a	1
275.31	0.633322454	DRAWSTRING	lure	n/a	n/a	n/a	1
275.944	0.716692849	ENDOWMENT	lure	n/a	n/a	n/a	1
276.66	0.383286866	SERGEANT	lure	n/a	n/a	n/a	1
277.044	0.616659447	DOORMEN	lure	n/a	n/a	n/a	1
277.66	0.700035613	TEAHOUSE	lure	n/a	n/a	n/a	1
278.36	0.716611944	SYMPOSIUM	lure	n/a	n/a	n/a	1
279.077	0.483327024	TULIP	lure	n/a	n/a	n/a	1
279.56	0.749986126	SURREALISM	lure	n/a	n/a	n/a	1
280.31	0.73332532	BARKER	lure	n/a	n/a	n/a	1
281.044	0.649994157	STRONGHOLD	lure	n/a	n/a	n/a	1
281.694	0.616659024	LIKELIHOOD	lure	n/a	n/a	n/a	1
282.31	0.533318908	STATEHOOD	lure	n/a	n/a	n/a	1
282.844	2.016647974	PITCHFORK	long	n/a	n/a	n/a	1
284.86	0.634936169	GAZEBO	lure	n/a	n/a	n/a	1
285.495	0.398382146	REPORTER	lure	n/a	n/a	n/a	1
285.894	0.566652193	LAUREL	lure	n/a	n/a	n/a	1
286.46	0.533327782	WATCHTOWER	lure	n/a	n/a	n/a	1
286.994	0.53332474	DIOXIDE	lure	n/a	n/a	n/a	1
287.527	0.533323517	INEQUITY	lure	n/a	n/a	n/a	1
288.06	0.549994709	ASPECT	lure	n/a	n/a	n/a	1
288.61	0.733324262	EXCELLENCY	lure	n/a	n/a	n/a	1
289.344	0.633322835	CONVERSANT	lure	n/a	n/a	n/a	1
289.977	0.499994894	MOOSE	lure	n/a	n/a	n/a	1
290.477	0.333330502	BEANSTALK	lure	n/a	n/a	n/a	1
290.81	1.016651994	LEMON	fruit	n/a	n/a	2	0
291.827	0.517839668	BUCKTOOTH	lure	n/a	n/a	n/a	1
292.345	0.48214465	WHARF	lure	n/a	n/a	n/a	1
292.827	0.349994098	JUDGMENT	lure	n/a	n/a	n/a	1
293.177	0.749989384	BILLBOARD	lure	n/a	n/a	n/a	1
293.927	0.449993431	LLAMA	lure	n/a	n/a	n/a	1
294.377	0.583331377	HEARSAY	lure	n/a	n/a	n/a	1
294.96	0.620883533	ANCHORMAN	lure	n/a	n/a	n/a	1
295.581	0.395767565	REPUBLIC	lure	n/a	n/a	n/a	1
295.977	0.316660952	SQUIRE	lure	n/a	n/a	n/a	1
296.293	0.749984249	ENDEARMENT	lure	n/a	n/a	n/a	1
297.043	0.649999945	TRAIT	lure	n/a	n/a	n/a	1
297.693	0.616652723	STOCKADE	lure	n/a	n/a	n/a	1
298.31	0.35000115	RUG	lure	n/a	n/a	n/a	1
298.66	0.616659043	SOAP	short	n/a	n/a	n/a	1
299.277	0.749981453	SLACKER	lure	n/a	n/a	n/a	1
300.027	0.71665443	WHACKER	lure	n/a	n/a	n/a	1
300.743	0.483328739	DERAILMENT	lure	n/a	n/a	n/a	1
301.227	0.516662699	EPILEPSY	lure	n/a	n/a	n/a	1
301.743	0.366656588	HUMORIST	lure	n/a	n/a	n/a	1
302.11	0.633332965	BAGPIPE	lure	n/a	n/a	n/a	1
302.743	0.69999097	MAGAZINE	lure	n/a	n/a	n/a	1
303.443	0.383323404	STUDENT	lure	n/a	n/a	n/a	1
303.827	0.649985948	BERET	lure	n/a	n/a	n/a	1
304.477	0.316662264	LOCALITY	lure	n/a	n/a	n/a	1
304.793	0.749990416	SKULLCAP	lure	n/a	n/a	n/a	1
305.543	0.699991182	GAZETTE	lure	n/a	n/a	n/a	1
306.243	0.649990804	SERVILITY	lure	n/a	n/a	n/a	1
306.893	1.016653571	CRANBERRY	fruit	832	2	2	1
307.91	0.566664174	ASCETIC	lure	n/a	n/a	n/a	1
308.477	0.66664995	PLENTY	lure	n/a	n/a	n/a	1
309.143	0.749999554	EPITAPH	lure	n/a	n/a	n/a	1
309.893	0.616652164	PILGRIMAGE	lure	n/a	n/a	n/a	1
310.51	0.449992149	KIDDER	lure	n/a	n/a	n/a	1
310.96	0.720593495	INDENTURE	lure	n/a	n/a	n/a	1
311.68	0.462729064	POLO	lure	n/a	n/a	n/a	1
312.143	0.63331629	MORNING	lure	n/a	n/a	n/a	1
312.777	0.549992203	CHAMPAIGN	lure	n/a	n/a	n/a	1
313.327	0.483326201	CONFESSOR	lure	n/a	n/a	n/a	1
313.81	0.399995655	GUMBO	lure	n/a	n/a	n/a	1
314.21	0.56670572	FORESIGHT	lure	n/a	n/a	n/a	1
314.777	0.516621115	ADMONITION	lure	n/a	n/a	n/a	1
315.293	2.049965776	FOSSIL	long	n/a	n/a	n/a	1
317.343	0.333333724	NEWSFLASH	lure	n/a	n/a	n/a	1
317.676	0.349988485	SPONGE	lure	n/a	n/a	n/a	1
318.026	0.41826993	SIFTER	lure	n/a	n/a	n/a	1
318.445	0.731716667	PACKAGE	lure	n/a	n/a	n/a	1
319.176	0.466657841	PUSHOVER	lure	n/a	n/a	n/a	1
319.643	0.416658222	ECTOPLASM	lure	n/a	n/a	n/a	1
320.06	0.549994908	PSEUDONYM	lure	n/a	n/a	n/a	1
320.61	0.416660911	GIRAFFE	lure	n/a	n/a	n/a	1
321.026	0.749987481	PRESENTER	lure	n/a	n/a	n/a	1
321.776	0.649994716	APPARENCY	lure	n/a	n/a	n/a	1
322.426	0.616656685	VOLATILITY	lure	n/a	n/a	n/a	1
323.043	0.333326009	NONSENSE	lure	n/a	n/a	n/a	1
323.376	0.616664296	LENS	short	n/a	n/a	n/a	1
323.993	0.649988398	SISTERHOOD	lure	n/a	n/a	n/a	1
324.643	0.699995857	SWATTER	lure	n/a	n/a	n/a	1
325.343	0.333320284	COLLUSION	lure	n/a	n/a	n/a	1
325.676	0.533328442	REPLAY	lure	n/a	n/a	n/a	1
326.21	0.383324747	FEVER	lure	n/a	n/a	n/a	1
326.593	0.599994778	RIFF	lure	n/a	n/a	n/a	1
327.193	0.53332687	TELETYPE	lure	n/a	n/a	n/a	1
327.726	0.46666499	PLAYPEN	lure	n/a	n/a	n/a	1
328.193	0.499988104	DUSK	lure	n/a	n/a	n/a	1
328.693	0.433325531	SAWHORSE	lure	n/a	n/a	n/a	1
329.126	0.400000315	SHARK	lure	n/a	n/a	n/a	1
329.526	0.566658957	PUPIL	lure	n/a	n/a	n/a	1
330.093	0.716648961	OXIDE	lure	n/a	n/a	n/a	1
330.81	0.734479565	MARTYRDOM	lure	n/a	n/a	n/a	1
331.544	0.698896127	SEMINAR	lure	n/a	n/a	n/a	1
332.243	0.616598372	TIMBER	short	n/a	n/a	n/a	1
332.86	0.399996938	RIPTIDE	lure	n/a	n/a	n/a	1
333.26	0.550032374	SCRUBBER	lure	n/a	n/a	n/a	1
333.81	0.533331666	WHALE	lure	n/a	n/a	n/a	1
334.343	0.583274435	CADDIE	lure	n/a	n/a	n/a	1
334.926	0.416666964	CAPITALISM	lure	n/a	n/a	n/a	1
335.343	0.383329896	TRACKER	lure	n/a	n/a	n/a	1
335.726	0.700032406	AIRFLOW	lure	n/a	n/a	n/a	1
336.426	0.316611999	PROTESTER	lure	n/a	n/a	n/a	1
336.743	0.583331339	BIRCH	lure	n/a	n/a	n/a	1
337.326	0.51670349	CATTLEMEN	lure	n/a	n/a	n/a	1
337.843	0.4000068	CONCLAVE	lure	n/a	n/a	n/a	1
338.243	0.333316219	PERCUSSION	lure	n/a	n/a	n/a	1
338.576	0.683282585	STUMPER	lure	n/a	n/a	n/a	1
339.26	0.416652205	HAKE	lure	n/a	n/a	n/a	1
339.676	0.699990746	CUTAWAY	lure	n/a	n/a	n/a	1
340.376	0.399994027	BLUEFISH	lure	n/a	n/a	n/a	1
340.776	0.616666109	MATTRESS	short	n/a	n/a	n/a	1
341.393	0.566652163	REGIME	lure	n/a	n/a	n/a	1
341.959	0.499991562	RITUAL	lure	n/a	n/a	n/a	1
342.459	0.433335933	MUSICALITY	lure	n/a	n/a	n/a	1
342.893	0.366656553	HEADACHE	lure	n/a	n/a	n/a	1
343.259	0.699994799	SUPREME	lure	n/a	n/a	n/a	1
343.959	0.766663554	REPEATER	lure	n/a	n/a	n/a	1
344.726	0.601926208	GROUNDHOG	lure	n/a	n/a	n/a	1
345.328	0.5314255	PIZZA	lure	n/a	n/a	n/a	1
345.859	0.466616966	MEDITATION	lure	n/a	n/a	n/a	1
346.326	0.416654283	ABSOLUTISM	lure	n/a	n/a	n/a	1
346.743	0.366670011	COLONIST	lure	n/a	n/a	n/a	1
347.109	0.399994452	EXPONENT	lure	n/a	n/a	n/a	1
347.509	0.416652485	DANCER	lure	n/a	n/a	n/a	1
347.926	0.700051037	BOUNTY	lure	n/a	n/a	n/a	1
348.626	0.54998519	FOGHORN	lure	n/a	n/a	n/a	1
349.176	2.016588186	CONTRACT	long	n/a	n/a	n/a	1
351.193	0.416661373	ARMADILLO	lure	n/a	n/a	n/a	1
351.609	0.466656674	IRONWORK	lure	n/a	n/a	n/a	1
352.076	0.616667164	ETHANOL	lure	n/a	n/a	n/a	1
352.693	0.683367488	FRIGIDITY	lure	n/a	n/a	n/a	1
353.376	0.349948264	BLAZER	lure	n/a	n/a	n/a	1
353.726	0.466659537	STONEWARE	lure	n/a	n/a	n/a	1
354.193	0.399991916	UPHOLSTERY	lure	n/a	n/a	n/a	1
354.593	0.633326126	VENDOR	lure	n/a	n/a	n/a	1
355.226	0.433324694	DOWNER	lure	n/a	n/a	n/a	1
355.659	0.499999588	SLIPPAGE	lure	n/a	n/a	n/a	1
356.159	0.316653749	NOMAD	lure	n/a	n/a	n/a	1
356.476	0.633328213	PESSIMISM	lure	n/a	n/a	n/a	1
357.109	0.59999113	RISER	lure	n/a	n/a	n/a	1
357.709	2.01664118	RAKE	long	n/a	n/a	n/a	1
359.726	0.583323409	BAZAAR	lure	n/a	n/a	n/a	1
360.309	0.466663127	FIREMAN	lure	n/a	n/a	n/a	1
360.776	0.649987294	PATRIARCH	lure	n/a	n/a	n/a	1
361.426	0.433329075	HEARTBURN	lure	n/a	n/a	n/a	1
361.859	0.649987776	GROUNDER	lure	n/a	n/a	n/a	1
362.509	0.516665787	BLUEJAY	lure	n/a	n/a	n/a	1
363.026	0.583319118	SAVER	lure	n/a	n/a	n/a	1
363.609	0.750033112	FOOTWORK	lure	n/a	n/a	n/a	1
364.359	0.484390586	OILFIELD	lure	n/a	n/a	n/a	1
364.844	0.715554415	SUFFERER	lure	n/a	n/a	n/a	1
365.559	0.383363938	CLIENT	lure	n/a	n/a	n/a	1
365.943	0.616617693	TRUCK	short	n/a	n/a	n/a	1
366.559	0.666656357	SALESMAN	lure	n/a	n/a	n/a	1
367.226	0.68338644	ALLEGATION	lure	n/a	n/a	n/a	1
367.909	0.449979877	COHORT	lure	n/a	n/a	n/a	1
368.359	0.718131284	PULSATION	lure	n/a	n/a	n/a	1
369.077	0.415144073	BACKSIDE	lure	n/a	n/a	n/a	1
369.492	0.649988756	CHECKER	lure	n/a	n/a	n/a	1
370.142	0.700032411	THRUSTER	lure	n/a	n/a	n/a	1
370.842	0.316684258	GODPARENT	lure	n/a	n/a	n/a	1
371.159	0.666633158	HOOPLA	lure	n/a	n/a	n/a	1
371.826	0.433320943	BOWEL	lure	n/a	n/a	n/a	1
372.259	0.749959849	PROFANITY	lure	n/a	n/a	n/a	1
373.009	0.683318686	ENIGMA	lure	n/a	n/a	n/a	1
373.692	0.316658129	CENTRALISM	lure	n/a	n/a	n/a	1
374.009	1.0166589	WATERMELON	fruit	n/a	n/a	2	0
375.026	0.600029585	TRANSFER	lure	84	2	n/a	0
375.626	0.433293761	BROWNSTONE	lure	n/a	n/a	n/a	1
376.059	0.65002098	CUPCAKE	lure	n/a	n/a	n/a	1
376.709	0.61662282	LOBSTER	lure	n/a	n/a	n/a	1
377.326	0.600043066	SPOKESMEN	lure	n/a	n/a	n/a	1
377.926	0.499942998	EASTERNER	lure	n/a	n/a	n/a	1
378.426	0.454664928	DECORATOR	lure	n/a	n/a	n/a	1
378.88	0.546519488	DIVERSION	lure	n/a	n/a	n/a	1
379.427	0.68216792	DIGIT	lure	n/a	n/a	n/a	1
380.109	0.449996934	SHRUBBERY	lure	n/a	n/a	n/a	1
380.559	0.433277179	PLATITUDE	lure	n/a	n/a	n/a	1
380.992	0.533332423	COWBELL	lure	n/a	n/a	n/a	1
381.526	0.699988265	SUBSIDY	lure	n/a	n/a	n/a	1
382.226	0.31962968	WAITER	lure	n/a	n/a	n/a	1
382.545	1.013683312	PEAR	fruit	n/a	n/a	2	0
383.559	0.649993004	MOWER	lure	175	2	n/a	0
384.209	0.566660174	PARAGRAPH	lure	n/a	n/a	n/a	1
384.776	0.650043108	NAVEL	lure	n/a	n/a	n/a	1
385.426	0.54993245	RHYTHM	lure	n/a	n/a	n/a	1
385.976	0.433330254	COURTSHIP	lure	n/a	n/a	n/a	1
386.409	0.651061037	NUANCE	lure	n/a	n/a	n/a	1
387.06	0.648922791	SNACK	lure	n/a	n/a	n/a	1
387.709	0.433324785	RAMPAGE	lure	n/a	n/a	n/a	1
388.142	0.716704849	INHUMANITY	lure	n/a	n/a	n/a	1
388.859	0.466608654	WINDSTORM	lure	n/a	n/a	n/a	1
389.325	0.566660056	NECKLACE	lure	n/a	n/a	n/a	1
389.892	0.416664413	RELATION	lure	n/a	n/a	n/a	1
390.309	0.366660633	TORMENTOR	lure	n/a	n/a	n/a	1
390.675	0.616662938	NICKEL	short	n/a	n/a	n/a	1
391.292	0.49998772	ADVERTISER	lure	n/a	n/a	n/a	1
391.792	0.733329275	REPETITION	lure	n/a	n/a	n/a	1
392.525	0.566650561	CANON	lure	n/a	n/a	n/a	1
393.092	0.68332656	COLLAGE	lure	n/a	n/a	n/a	1
393.775	0.316658352	ELECTRON	lure	n/a	n/a	n/a	1
394.092	0.416668866	OUTRAGE	lure	n/a	n/a	n/a	1
394.509	0.466661295	REPOSITORY	lure	n/a	n/a	n/a	1
394.975	0.749989564	CHEMIST	lure	n/a	n/a	n/a	1
395.725	0.433322828	MARBLE	lure	n/a	n/a	n/a	1
396.159	0.399997559	MONORAIL	lure	n/a	n/a	n/a	1
396.559	0.449995664	OPERATOR	lure	n/a	n/a	n/a	1
397.009	0.349993005	JUROR	lure	n/a	n/a	n/a	1
397.359	0.549985176	ABSTENTION	lure	n/a	n/a	n/a	1
397.909	0.45000133	ROSEWOOD	lure	n/a	n/a	n/a	1
398.359	0.633325284	CALYPSO	lure	n/a	n/a	n/a	1
398.992	2.016639842	LEAF	long	n/a	n/a	n/a	1
401.009	0.733313522	MATURITY	lure	n/a	n/a	n/a	1
401.742	0.599998202	FISSURE	lure	n/a	n/a	n/a	1
402.342	0.68332103	HIPSTER	lure	n/a	n/a	n/a	1
403.025	0.483328805	GIMMICK	lure	n/a	n/a	n/a	1
403.509	0.433331307	VISTA	lure	n/a	n/a	n/a	1
403.942	0.53331905	NEWSCASTER	lure	n/a	n/a	n/a	1
404.475	0.599993958	POSTMEN	lure	n/a	n/a	n/a	1
405.075	0.349995456	SHIPWRECK	lure	n/a	n/a	n/a	1
405.425	0.483329354	PANACEA	lure	n/a	n/a	n/a	1
405.909	0.64998524	APARTMENT	lure	n/a	n/a	n/a	1
406.559	0.499999886	DIFFUSION	lure	n/a	n/a	n/a	1
407.059	0.466656722	LIP	lure	n/a	n/a	n/a	1
407.525	2.050028723	SKETCH	long	n/a	n/a	n/a	1
409.575	0.749934336	RESUMPTION	lure	n/a	n/a	n/a	1
410.325	0.483325938	MATCHMAKER	lure	n/a	n/a	n/a	1
410.809	0.44998847	DOMINATION	lure	n/a	n/a	n/a	1
411.259	0.699990267	CROCODILE	lure	n/a	n/a	n/a	1
411.958	0.399992215	FOREGROUND	lure	n/a	n/a	n/a	1
412.358	0.499993055	PEBBLE	lure	n/a	n/a	n/a	1
412.858	0.750728135	FANATICISM	lure	n/a	n/a	n/a	1
413.609	0.515923612	PEST	lure	n/a	n/a	n/a	1
414.125	0.416657872	METHYL	lure	n/a	n/a	n/a	1
414.542	0.61666164	SURNAME	lure	n/a	n/a	n/a	1
415.158	0.399991148	WANDERER	lure	n/a	n/a	n/a	1
415.558	0.616661496	ROOT	short	n/a	n/a	n/a	1
416.175	0.549998088	TEMPTER	lure	n/a	n/a	n/a	1
416.725	0.533366035	FEEDER	lure	n/a	n/a	n/a	1
417.258	0.416620424	ARTILLERY	lure	n/a	n/a	n/a	1
417.675	0.583316932	PENDANT	lure	n/a	n/a	n/a	1
418.258	0.450001712	PORCH	lure	n/a	n/a	n/a	1
418.708	0.749981519	PAGEANTRY	lure	n/a	n/a	n/a	1
419.458	0.500000212	CHEVRON	lure	n/a	n/a	n/a	1
419.958	0.416656517	HERO	lure	n/a	n/a	n/a	1
420.375	0.60219352	SCORCHER	lure	n/a	n/a	n/a	1
420.977	0.447797837	REBIRTH	lure	n/a	n/a	n/a	1
421.425	0.549983686	HAILSTORM	lure	n/a	n/a	n/a	1
421.975	0.583325197	FATE	lure	n/a	n/a	n/a	1
422.558	0.683376434	SMOKER	lure	n/a	n/a	n/a	1
423.242	0.366658333	TRACTOR	lure	n/a	n/a	n/a	1
423.608	2.016598111	PATCH	long	n/a	n/a	n/a	1
425.625	0.483327088	PACIFISM	lure	n/a	n/a	n/a	1
426.108	0.700032138	FREELOADER	lure	n/a	n/a	n/a	1
426.808	0.799941297	KOALA	lure	n/a	n/a	n/a	1
427.608	0.683324737	SECTOR	lure	n/a	n/a	n/a	1
428.292	0.650909077	REPUTATION	lure	n/a	n/a	n/a	1
428.943	0.68240065	LAWN	lure	n/a	n/a	n/a	1
429.625	0.349997415	COLLOQUIUM	lure	n/a	n/a	n/a	1
429.975	0.499990967	BOY	lure	n/a	n/a	n/a	1
430.475	0.533326311	PROPAGANDA	lure	n/a	n/a	n/a	1
431.008	0.566660543	LITERATURE	lure	n/a	n/a	n/a	1
431.575	1.016969483	PLUM	fruit	910	2	2	1
432.592	0.483008537	EPIDEMIC	lure	n/a	n/a	n/a	1
433.075	0.533329372	FIRTH	lure	n/a	n/a	n/a	1
433.608	0.399990234	BANDAGE	lure	n/a	n/a	n/a	1
434.008	0.433327	CLASSROOM	lure	n/a	n/a	n/a	1
434.442	0.566659074	PERIPHERY	lure	n/a	n/a	n/a	1
435.008	0.749997195	SESAME	lure	n/a	n/a	n/a	1
435.758	0.651597685	BEAN	lure	n/a	n/a	n/a	1
436.41	0.481715931	HOLOGRAPH	lure	n/a	n/a	n/a	1
436.891	0.749988122	GRAYBEARD	lure	n/a	n/a	n/a	1
437.641	0.583325734	DEVIANCY	lure	n/a	n/a	n/a	1
438.225	0.566662697	NETTLE	lure	n/a	n/a	n/a	1
438.791	0.449987905	PULLEY	lure	n/a	n/a	n/a	1
439.241	0.733330001	VIGIL	lure	n/a	n/a	n/a	1
439.975	2.016633511	PLANK	long	n/a	n/a	n/a	1
441.991	0.44999423	FOOD	lure	n/a	n/a	n/a	1
442.441	0.520603898	APOSTROPHE	lure	n/a	n/a	n/a	1
442.962	0.312715873	POEM	lure	n/a	n/a	n/a	1
443.275	0.450002361	VALOR	lure	n/a	n/a	n/a	1
443.725	0.399990113	EARTHQUAKE	lure	n/a	n/a	n/a	1
444.125	0.583328376	SOYBEAN	lure	n/a	n/a	n/a	1
444.708	0.383326577	SUFFRAGE	lure	n/a	n/a	n/a	1
445.091	0.58332113	PALETTE	lure	n/a	n/a	n/a	1
445.675	0.399999648	PARTICIPLE	lure	n/a	n/a	n/a	1
446.075	0.399986238	NIGHTSHIRT	lure	n/a	n/a	n/a	1
446.475	0.433336049	GEESE	lure	n/a	n/a	n/a	1
446.908	0.333323757	LONGSHOT	lure	n/a	n/a	n/a	1
447.241	0.58332344	MASTERSHIP	lure	n/a	n/a	n/a	1
447.825	0.583330273	LOCOMOTION	lure	n/a	n/a	n/a	1
448.408	0.616658539	PENNY	short	n/a	n/a	n/a	1
449.025	0.666659113	OTTER	lure	n/a	n/a	n/a	1
449.691	0.51665195	ACE	lure	n/a	n/a	n/a	1
450.208	0.399995786	BRAT	lure	n/a	n/a	n/a	1
450.608	0.349998872	NAIVETY	lure	n/a	n/a	n/a	1
450.958	0.449988372	CADDY	lure	n/a	n/a	n/a	1
451.408	0.666662798	DEAN	lure	n/a	n/a	n/a	1
452.075	0.366663614	EXTROVERT	lure	n/a	n/a	n/a	1
452.441	0.533320074	SOCIALISM	lure	n/a	n/a	n/a	1
452.975	0.399999684	INSERTION	lure	n/a	n/a	n/a	1
453.375	0.449986895	SANDPIT	lure	n/a	n/a	n/a	1
453.825	0.716660871	REPRINT	lure	n/a	n/a	n/a	1
454.541	0.683322146	TEASPOON	lure	n/a	n/a	n/a	1
455.225	0.44999359	LATEX	lure	n/a	n/a	n/a	1
455.675	0.349991552	BOOKSHOP	lure	n/a	n/a	n/a	1
456.025	0.350002907	GULLY	lure	n/a	n/a	n/a	1
456.375	0.316654148	JAB	lure	n/a	n/a	n/a	1
456.691	0.683333224	HONEYBEE	lure	n/a	n/a	n/a	1
457.375	0.433319596	CHANCELLOR	lure	n/a	n/a	n/a	1
457.808	0.449992461	WORKMAN	lure	n/a	n/a	n/a	1
458.258	0.716665744	TREMOR	lure	n/a	n/a	n/a	1
458.975	0.316652894	DISTURBER	lure	n/a	n/a	n/a	1
459.291	0.583334484	CHOW	lure	n/a	n/a	n/a	1
459.875	0.599987302	HALFTONE	lure	n/a	n/a	n/a	1
460.474	0.401367271	PASSAGE	lure	n/a	n/a	n/a	1
460.876	0.598623835	WHISPERER	lure	n/a	n/a	n/a	1
461.474	0.733313959	CRIMP	lure	n/a	n/a	n/a	1
462.208	0.549994161	INDICTMENT	lure	n/a	n/a	n/a	1
462.758	0.733323993	FIGUREHEAD	lure	n/a	n/a	n/a	1
463.491	0.63332223	COMPOSER	lure	n/a	n/a	n/a	1
464.124	0.583383703	EXTENT	lure	n/a	n/a	n/a	1
464.708	n/a	CHOLERA	lure	n/a	n/a	n/a	1