onset	duration	stim	cond	dur	RT	resp	cresp	acc
4.051	0.716661595	SLEEVE	lure	n/a	n/a	n/a	n/a	1
4.768	0.600041201	BARBARITY	lure	n/a	n/a	n/a	n/a	1
5.368	0.466603102	REPETITION	lure	n/a	n/a	n/a	n/a	1
5.835	0.533328438	FACTORY	lure	n/a	n/a	n/a	n/a	1
6.368	0.650044034	STARLIGHT	lure	n/a	n/a	n/a	n/a	1
7.018	0.433321901	URBANISM	lure	n/a	n/a	n/a	n/a	1
7.451	0.516611398	PLENITUDE	lure	n/a	n/a	n/a	n/a	1
7.968	2.016643064	DOME	long	n/a	n/a	n/a	n/a	1
9.984	0.333328799	SUITCASE	lure	n/a	n/a	n/a	n/a	1
10.318	0.616658056	MINESTRONE	lure	n/a	n/a	n/a	n/a	1
10.934	0.733322436	DEBILITATE	lure	n/a	n/a	n/a	n/a	1
11.668	0.599995319	APTITUDE	lure	n/a	n/a	n/a	n/a	1
12.268	0.466656815	UPHOLSTERY	lure	n/a	n/a	n/a	n/a	1
12.734	0.451874261	REFERENCE	lure	n/a	n/a	n/a	n/a	1
13.186	0.431445234	BRIAR	lure	n/a	n/a	n/a	n/a	1
13.618	0.533379626	MIGRATION	lure	n/a	n/a	n/a	n/a	1
14.151	0.31660948	TRUMPETER	lure	n/a	n/a	n/a	n/a	1
14.468	0.416662948	CONFUSION	lure	n/a	n/a	n/a	n/a	1
14.884	0.366661744	SYMPOSIUM	lure	n/a	n/a	n/a	n/a	1
15.251	0.450041172	FOOTSTEP	lure	n/a	n/a	n/a	n/a	1
15.701	0.433283755	PROTECTOR	lure	n/a	n/a	n/a	n/a	1
16.134	1.016648134	GOOSEBERRY	fruit	n/a	647	2	2	1
17.151	0.466664256	ZEBRA	lure	n/a	n/a	n/a	n/a	1
17.618	0.716653557	SANCTIMONY	lure	n/a	n/a	n/a	n/a	1
18.334	0.516661094	PREDATOR	lure	n/a	n/a	n/a	n/a	1
18.851	0.468961123	MEDICATION	lure	n/a	n/a	n/a	n/a	1
19.32	0.664359767	SLAB	lure	n/a	n/a	n/a	n/a	1
19.984	0.749987399	KNOB	lure	n/a	n/a	n/a	n/a	1
20.734	0.500044748	VIGOR	lure	n/a	n/a	n/a	n/a	1
21.234	0.699938438	UPSWING	lure	n/a	n/a	n/a	n/a	1
21.934	0.366709786	FEE	lure	n/a	n/a	n/a	n/a	1
22.301	0.699943129	WOMENFOLK	lure	n/a	n/a	n/a	n/a	1
23.001	0.499992723	WORKSHEET	lure	n/a	n/a	n/a	n/a	1
23.501	0.533329038	BREWERY	lure	n/a	n/a	n/a	n/a	1
24.034	0.616656926	CARD	short	n/a	n/a	n/a	n/a	1
24.651	0.383328389	GREMLIN	lure	n/a	n/a	n/a	n/a	1
25.034	0.333327352	CARAMEL	lure	n/a	n/a	n/a	n/a	1
25.368	0.466657937	POPULATION	lure	n/a	n/a	n/a	n/a	1
25.834	0.349995395	EXCEPTION	lure	n/a	n/a	n/a	n/a	1
26.184	0.499995987	MEMO	lure	n/a	n/a	n/a	n/a	1
26.684	0.316659702	SEMINARY	lure	n/a	n/a	n/a	n/a	1
27.001	0.699992884	NEAPOLITAN	lure	n/a	n/a	n/a	n/a	1
27.701	0.649987528	SNEAKER	lure	n/a	n/a	n/a	n/a	1
28.351	0.349998609	CITATION	lure	n/a	n/a	n/a	n/a	1
28.701	0.683328108	VAGABOND	lure	n/a	n/a	n/a	n/a	1
29.384	0.499991146	WOODWIND	lure	n/a	n/a	n/a	n/a	1
29.884	0.583328511	SILO	lure	n/a	n/a	n/a	n/a	1
30.468	0.416655418	RELICT	lure	n/a	n/a	n/a	n/a	1
30.884	0.583324915	SUCKER	lure	n/a	n/a	n/a	n/a	1
31.467	0.716659748	PASSENGER	lure	n/a	n/a	n/a	n/a	1
32.184	0.616661089	MUZZLE	short	n/a	n/a	n/a	n/a	1
32.801	0.349988515	DESERT	lure	n/a	n/a	n/a	n/a	1
33.151	0.316662851	UNDERBRUSH	lure	n/a	n/a	n/a	n/a	1
33.467	0.549994617	DEMOGRAPHY	lure	n/a	n/a	n/a	n/a	1
34.017	0.749986806	HAVOC	lure	n/a	n/a	n/a	n/a	1
34.767	0.649991032	CONDUCTOR	lure	n/a	n/a	n/a	n/a	1
35.417	0.499996733	ROUGHNECK	lure	n/a	n/a	n/a	n/a	1
35.917	0.433324905	RYE	lure	n/a	n/a	n/a	n/a	1
36.351	0.549991979	DICTION	lure	n/a	n/a	n/a	n/a	1
36.901	0.649995422	EPISODE	lure	n/a	n/a	n/a	n/a	1
37.551	0.399995427	HUMANITY	lure	n/a	n/a	n/a	n/a	1
37.951	0.43332881	WORKOUT	lure	n/a	n/a	n/a	n/a	1
38.384	0.416656117	DESCENDANT	lure	n/a	n/a	n/a	n/a	1
38.801	0.433332443	PAVILION	lure	n/a	n/a	n/a	n/a	1
39.234	0.499993577	SCENERY	lure	n/a	n/a	n/a	n/a	1
39.734	0.666657556	PUTTY	lure	n/a	n/a	n/a	n/a	1
40.401	0.349988518	APPLAUSE	lure	n/a	n/a	n/a	n/a	1
40.751	2.016641036	JAIL	long	n/a	n/a	n/a	n/a	1
42.767	0.533324876	ICEPACK	lure	n/a	n/a	n/a	n/a	1
43.301	0.58333051	SYMBOLISM	lure	n/a	n/a	n/a	n/a	1
43.884	0.599993337	MISFIT	lure	n/a	n/a	n/a	n/a	1
44.484	0.716652129	WATERCOLOR	lure	n/a	n/a	n/a	n/a	1
45.201	0.550047431	LINT	lure	n/a	n/a	n/a	n/a	1
45.751	0.566604528	NOSTALGIA	lure	n/a	n/a	n/a	n/a	1
46.317	0.466710389	HOLDOVER	lure	n/a	n/a	n/a	n/a	1
46.784	0.449948818	ORDINANCE	lure	n/a	n/a	n/a	n/a	1
47.234	0.533325012	PATELLA	lure	n/a	n/a	n/a	n/a	1
47.767	0.733319773	AEROSOL	lure	n/a	n/a	n/a	n/a	1
48.501	0.533328122	DISSUASION	lure	n/a	n/a	n/a	n/a	1
49.034	1.052889822	PEAR	fruit	n/a	795	2	2	1
50.087	0.580419159	LUSTRE	lure	n/a	n/a	n/a	n/a	1
50.667	0.383326764	ENAMEL	lure	n/a	n/a	n/a	n/a	1
51.051	0.533329604	ARK	lure	n/a	n/a	n/a	n/a	1
51.584	0.68332124	PREVALENCE	lure	n/a	n/a	n/a	n/a	1
52.267	0.566661103	ICEBOX	lure	n/a	n/a	n/a	n/a	1
52.834	0.599994467	ENTROPY	lure	n/a	n/a	n/a	n/a	1
53.434	0.616653849	EMPIRICISM	lure	n/a	n/a	n/a	n/a	1
54.051	0.54999824	CLINIC	lure	n/a	n/a	n/a	n/a	1
54.601	0.566658917	REGENCY	lure	n/a	n/a	n/a	n/a	1
55.167	0.400051648	PRUDENCE	lure	n/a	n/a	n/a	n/a	1
55.567	0.416597803	EMOTION	lure	n/a	n/a	n/a	n/a	1
55.984	0.633330053	HANDLEBAR	lure	n/a	n/a	n/a	n/a	1
56.617	0.5833212	LOCKJAW	lure	n/a	n/a	n/a	n/a	1
57.2	0.73332229	CORNSTARCH	lure	n/a	n/a	n/a	n/a	1
57.934	0.616665138	COUNCIL	short	n/a	n/a	n/a	n/a	1
58.55	0.649987509	MINELAYER	lure	n/a	n/a	n/a	n/a	1
59.2	0.766657752	KINSMAN	lure	n/a	n/a	n/a	n/a	1
59.967	0.633319442	WASHBASIN	lure	n/a	n/a	n/a	n/a	1
60.6	0.616665898	NUB	lure	n/a	n/a	n/a	n/a	1
61.217	0.733317472	SINKHOLE	lure	n/a	n/a	n/a	n/a	1
61.95	0.533328101	CROSSBEAM	lure	n/a	n/a	n/a	n/a	1
62.484	0.450592746	PEDIGREE	lure	n/a	n/a	n/a	n/a	1
62.934	0.349396108	DEFERENCE	lure	n/a	n/a	n/a	n/a	1
63.284	0.616659322	TRUSTEE	lure	n/a	n/a	n/a	n/a	1
63.9	0.716656788	CURD	lure	n/a	n/a	n/a	n/a	1
64.617	0.533325906	LIGHTBULB	lure	n/a	n/a	n/a	n/a	1
65.15	0.466656731	LEAGUE	lure	n/a	n/a	n/a	n/a	1
65.617	0.683330401	POTBELLY	lure	n/a	n/a	n/a	n/a	1
66.3	2.016634844	ELBOW	long	n/a	n/a	n/a	n/a	1
68.317	0.350059498	TRUANCY	lure	n/a	n/a	n/a	n/a	1
68.667	0.683261349	CONCLAVE	lure	n/a	n/a	n/a	n/a	1
69.35	0.733325401	FIST	lure	n/a	n/a	n/a	n/a	1
70.084	0.549990345	NATION	lure	n/a	n/a	n/a	n/a	1
70.634	0.716657341	AIRPLANE	lure	n/a	n/a	n/a	n/a	1
71.35	0.316662569	DELL	lure	n/a	n/a	n/a	n/a	1
71.667	0.61666142	FUR	lure	n/a	n/a	n/a	n/a	1
72.284	0.41666278	PROPULSION	lure	n/a	n/a	n/a	n/a	1
72.7	0.566659125	CHEEKBONE	lure	n/a	n/a	n/a	n/a	1
73.267	0.499986814	CANDIDATE	lure	n/a	n/a	n/a	n/a	1
73.767	0.683327297	HOMICIDE	lure	n/a	n/a	n/a	n/a	1
74.45	0.6166615	ROAD	short	n/a	n/a	n/a	n/a	1
75.067	0.400781443	NAUGHT	lure	n/a	n/a	n/a	n/a	1
75.468	0.732530714	REPAYMENT	lure	n/a	n/a	n/a	n/a	1
76.2	0.383327748	EXPEDIENCE	lure	n/a	n/a	n/a	n/a	1
76.584	0.416667582	TERRYCLOTH	lure	n/a	n/a	n/a	n/a	1
77	0.433321032	TWOSOME	lure	n/a	n/a	n/a	n/a	1
77.434	0.666657645	FESTIVITY	lure	n/a	n/a	n/a	n/a	1
78.1	0.369830146	BREAKWATER	lure	n/a	n/a	n/a	n/a	1
78.47	0.663491331	TUMBLER	lure	n/a	n/a	n/a	n/a	1
79.134	0.633328618	MUFFIN	lure	n/a	n/a	n/a	n/a	1
79.767	0.649991818	HELLCAT	lure	n/a	n/a	n/a	n/a	1
80.417	0.633359913	CRITIC	lure	n/a	n/a	n/a	n/a	1
81.05	0.633287467	CABDRIVER	lure	n/a	n/a	n/a	n/a	1
81.683	0.733321464	CUCUMBER	lure	n/a	n/a	n/a	n/a	1
82.417	0.34999511	HOCKEY	lure	n/a	n/a	n/a	n/a	1
82.767	0.616661227	SAWDUST	short	n/a	n/a	n/a	n/a	1
83.383	0.683326152	CORN	lure	n/a	n/a	n/a	n/a	1
84.067	0.416659467	LYRE	lure	n/a	n/a	n/a	n/a	1
84.483	0.599991919	FRENZY	lure	n/a	n/a	n/a	n/a	1
85.083	0.383327106	LUCK	lure	n/a	n/a	n/a	n/a	1
85.467	0.666660509	HUNTSMAN	lure	n/a	n/a	n/a	n/a	1
86.133	0.666654506	PURSUER	lure	n/a	n/a	n/a	n/a	1
86.8	0.649991509	FERTILITY	lure	n/a	n/a	n/a	n/a	1
87.45	0.433328326	ELATION	lure	n/a	n/a	n/a	n/a	1
87.883	0.416706272	SKIER	lure	n/a	n/a	n/a	n/a	1
88.3	0.399948936	SUSPICION	lure	n/a	n/a	n/a	n/a	1
88.7	0.616658612	BRAINWAVE	lure	n/a	n/a	n/a	n/a	1
89.317	0.649990082	MISTRIAL	lure	n/a	n/a	n/a	n/a	1
89.967	0.516658523	CENT	lure	n/a	n/a	n/a	n/a	1
90.483	0.6166614	WHARF	lure	n/a	n/a	n/a	n/a	1
91.1	1.016652283	BLUEBERRY	fruit	n/a	705	2	2	1
92.117	0.466662165	STALLION	lure	n/a	n/a	n/a	n/a	1
92.583	0.433375872	LLAMA	lure	n/a	n/a	n/a	n/a	1
93.017	0.483325117	FLAPPER	lure	n/a	n/a	n/a	n/a	1
93.5	0.716610721	CARRYOUT	lure	n/a	n/a	n/a	n/a	1
94.217	0.46665398	OPPRESSION	lure	n/a	n/a	n/a	n/a	1
94.683	0.484452517	KOALA	lure	n/a	n/a	n/a	n/a	1
95.168	0.432201937	POUCH	lure	n/a	n/a	n/a	n/a	1
95.6	0.733367914	WISECRACK	lure	n/a	n/a	n/a	n/a	1
96.333	0.449954639	FENDER	lure	n/a	n/a	n/a	n/a	1
96.783	0.666654205	GRAYBEARD	lure	n/a	n/a	n/a	n/a	1
97.45	0.366660715	ELASTICITY	lure	n/a	n/a	n/a	n/a	1
97.817	0.316662914	TOXIN	lure	n/a	n/a	n/a	n/a	1
98.133	0.449997914	REUNION	lure	n/a	n/a	n/a	n/a	1
98.583	0.483326395	ILLEGALITY	lure	n/a	n/a	n/a	n/a	1
99.067	0.683362461	CHIVE	lure	n/a	n/a	n/a	n/a	1
99.75	2.01659796	DIRT	long	n/a	n/a	n/a	n/a	1
101.767	0.666660458	HOUSECOAT	lure	n/a	n/a	n/a	n/a	1
102.433	0.416659273	DOCTORATE	lure	n/a	n/a	n/a	n/a	1
102.85	0.683325748	UNDERGRAD	lure	n/a	n/a	n/a	n/a	1
103.533	0.400032483	SWEATER	lure	n/a	n/a	n/a	n/a	1
103.933	0.349955443	PERMANENCE	lure	n/a	n/a	n/a	n/a	1
104.283	0.54999754	COBBLER	lure	n/a	n/a	n/a	n/a	1
104.833	0.583318369	BANQUET	lure	n/a	n/a	n/a	n/a	1
105.416	0.31666729	FOE	lure	n/a	n/a	n/a	n/a	1
105.733	0.533326289	GASKET	lure	n/a	n/a	n/a	n/a	1
106.266	0.749991757	DONOR	lure	n/a	n/a	n/a	n/a	1
107.016	0.750035646	PERIMETER	lure	n/a	n/a	n/a	n/a	1
107.767	0.702944356	CATALYST	lure	n/a	n/a	n/a	n/a	1
108.469	2.047036646	SPONGE	long	n/a	n/a	n/a	n/a	1
110.516	0.433261855	FOLIAGE	lure	n/a	n/a	n/a	n/a	1
110.95	0.333328346	PINGPONG	lure	n/a	n/a	n/a	n/a	1
111.283	0.683370503	KEROSENE	lure	n/a	n/a	n/a	n/a	1
111.966	0.749942963	SYNTAX	lure	n/a	n/a	n/a	n/a	1
112.716	0.483327648	TRIANGLE	lure	n/a	n/a	n/a	n/a	1
113.2	0.666658371	LUNCHEON	lure	n/a	n/a	n/a	n/a	1
113.866	0.549991802	FRIENDSHIP	lure	n/a	n/a	n/a	n/a	1
114.416	0.583373325	LOOTER	lure	n/a	n/a	n/a	n/a	1
115	0.349994584	MOUSTACHE	lure	n/a	n/a	n/a	n/a	1
115.35	0.449946727	LENGTH	lure	n/a	n/a	n/a	n/a	1
115.8	0.416661607	BRAINSTORM	lure	n/a	n/a	n/a	n/a	1
116.216	0.549988318	SHOWGIRL	lure	n/a	n/a	n/a	n/a	1
116.766	0.616662793	COLUMN	short	n/a	n/a	n/a	n/a	1
117.383	0.316657621	LEAKAGE	lure	n/a	n/a	n/a	n/a	1
117.7	0.466709729	BOOTH	lure	n/a	n/a	n/a	n/a	1
118.166	0.483284394	PLAYWRIGHT	lure	n/a	n/a	n/a	n/a	1
118.65	0.616704781	GROWER	lure	n/a	n/a	n/a	n/a	1
119.266	0.566606515	WORKTABLE	lure	n/a	n/a	n/a	n/a	1
119.833	0.466665879	KILO	lure	n/a	n/a	n/a	n/a	1
120.3	0.733321407	CYNIC	lure	n/a	n/a	n/a	n/a	1
121.033	0.499990202	PEDICURE	lure	n/a	n/a	n/a	n/a	1
121.533	0.433332524	LIFETIME	lure	n/a	n/a	n/a	n/a	1
121.966	0.66665588	BRICKLAYER	lure	n/a	n/a	n/a	n/a	1
122.633	0.499995372	SCOREBOOK	lure	n/a	n/a	n/a	n/a	1
123.133	0.516655104	SUBMISSION	lure	n/a	n/a	n/a	n/a	1
123.65	0.649993672	MAILBAG	lure	n/a	n/a	n/a	n/a	1
124.3	0.318922609	JACKRABBIT	lure	n/a	n/a	n/a	n/a	1
124.619	1.014391641	STRAWBERRY	fruit	n/a	611	2	2	1
125.633	0.549989894	MARROW	lure	n/a	n/a	n/a	n/a	1
126.183	0.699995574	PRETEST	lure	n/a	n/a	n/a	n/a	1
126.883	0.69998627	TOMCAT	lure	n/a	n/a	n/a	n/a	1
127.583	0.483326381	HOGWASH	lure	n/a	n/a	n/a	n/a	1
128.066	0.616657852	INEQUITY	lure	n/a	n/a	n/a	n/a	1
128.683	0.649991765	OINTMENT	lure	n/a	n/a	n/a	n/a	1
129.333	0.616657895	RAYON	lure	n/a	n/a	n/a	n/a	1
129.949	0.616676325	GARGOYLE	lure	n/a	n/a	n/a	n/a	1
130.566	0.383310049	BUCCANEER	lure	n/a	n/a	n/a	n/a	1
130.949	0.349997045	DISTILLER	lure	n/a	n/a	n/a	n/a	1
131.299	0.700037737	RESPONDENT	lure	n/a	n/a	n/a	n/a	1
132	0.733354225	BANDWAGON	lure	n/a	n/a	n/a	n/a	1
132.733	0.6332517	COMMUNE	lure	n/a	n/a	n/a	n/a	1
133.366	0.616657914	TIMBER	short	n/a	n/a	n/a	n/a	1
133.983	0.333325824	PETROL	lure	n/a	n/a	n/a	n/a	1
134.316	0.699988102	STAG	lure	n/a	n/a	n/a	n/a	1
135.016	0.749995768	STIGMATA	lure	n/a	n/a	n/a	n/a	1
135.766	0.75003592	CASEWORKER	lure	n/a	n/a	n/a	n/a	1
136.516	0.551732206	FLAIR	lure	n/a	n/a	n/a	n/a	1
137.068	0.748204432	DRUMBEAT	lure	n/a	n/a	n/a	n/a	1
137.816	0.716653695	BASEBOARD	lure	n/a	n/a	n/a	n/a	1
138.533	0.733324187	JUMPER	lure	n/a	n/a	n/a	n/a	1
139.266	0.4833294	DOGMATISM	lure	n/a	n/a	n/a	n/a	1
139.749	0.749988948	CINDER	lure	n/a	n/a	n/a	n/a	1
140.499	0.68331864	CREATURE	lure	n/a	n/a	n/a	n/a	1
141.183	0.749996209	UNIFORMITY	lure	n/a	n/a	n/a	n/a	1
141.933	2.016640479	FOREST	long	n/a	n/a	n/a	n/a	1
143.949	0.33332802	CONTENTION	lure	n/a	n/a	n/a	n/a	1
144.283	0.333329045	PULSATION	lure	n/a	n/a	n/a	n/a	1
144.616	0.383322317	ALTERNATOR	lure	n/a	n/a	n/a	n/a	1
144.999	0.716662891	PRODUCER	lure	n/a	n/a	n/a	n/a	1
145.716	0.383325899	DINNER	lure	n/a	n/a	n/a	n/a	1
146.099	0.749986553	SOLDIERY	lure	n/a	n/a	n/a	n/a	1
146.849	0.549995385	CREWMEMBER	lure	n/a	n/a	n/a	n/a	1
147.399	0.63332146	TRINITY	lure	n/a	n/a	n/a	n/a	1
148.033	0.683373203	WATCHMAN	lure	n/a	n/a	n/a	n/a	1
148.716	0.649943702	DISTILLERY	lure	n/a	n/a	n/a	n/a	1
149.366	0.36732029	BUSTLE	lure	n/a	n/a	n/a	n/a	1
149.733	0.549332792	ATOM	lure	n/a	n/a	n/a	n/a	1
150.283	1.016654829	GRAPEFRUIT	fruit	n/a	715	2	2	1
151.299	0.566662951	INDECISION	lure	n/a	n/a	n/a	n/a	1
151.866	0.466657596	STEWARD	lure	n/a	n/a	n/a	n/a	1
152.333	0.438026222	MATCHSTICK	lure	n/a	n/a	n/a	n/a	1
152.771	0.645295641	OUTSIDER	lure	n/a	n/a	n/a	n/a	1
153.416	0.333328611	SALARY	lure	n/a	n/a	n/a	n/a	1
153.749	0.333328566	BATH	lure	n/a	n/a	n/a	n/a	1
154.083	0.33332581	POD	lure	n/a	n/a	n/a	n/a	1
154.416	0.650029943	PLAYPEN	lure	n/a	n/a	n/a	n/a	1
155.066	0.483329576	FURNACE	lure	n/a	n/a	n/a	n/a	1
155.549	0.716717645	MAMMAL	lure	n/a	n/a	n/a	n/a	1
156.266	0.416600162	STATEHOOD	lure	n/a	n/a	n/a	n/a	1
156.683	0.433287337	GLYCERIN	lure	n/a	n/a	n/a	n/a	1
157.116	0.516660026	BUNT	lure	n/a	n/a	n/a	n/a	1
157.632	0.483364818	SENATOR	lure	n/a	n/a	n/a	n/a	1
158.116	2.016602835	DITCH	long	n/a	n/a	n/a	n/a	1
160.132	0.399990928	CADDIE	lure	n/a	n/a	n/a	n/a	1
160.532	0.74999001	BIOLOGIST	lure	n/a	n/a	n/a	n/a	1
161.282	0.416664119	PULLOVER	lure	n/a	n/a	n/a	n/a	1
161.699	0.683319252	TRACHEA	lure	n/a	n/a	n/a	n/a	1
162.382	0.666658582	HEDONIST	lure	n/a	n/a	n/a	n/a	1
163.049	0.733327234	CORRECTION	lure	n/a	n/a	n/a	n/a	1
163.782	0.799988025	TUNDRA	lure	n/a	n/a	n/a	n/a	1
164.582	0.583324133	VIVACITY	lure	n/a	n/a	n/a	n/a	1
165.166	0.766657046	SLINGSHOT	lure	n/a	n/a	n/a	n/a	1
165.932	0.633322365	VALENTINE	lure	n/a	n/a	n/a	n/a	1
166.566	1.016653188	KIWI	fruit	n/a	632	2	2	1
167.582	0.49999284	SEASCAPE	lure	n/a	n/a	n/a	n/a	1
168.082	0.399996673	SHOCKWAVE	lure	n/a	n/a	n/a	n/a	1
168.482	0.316961582	TREATISE	lure	n/a	n/a	n/a	n/a	1
168.799	0.449694995	RETIREMENT	lure	n/a	n/a	n/a	n/a	1
169.249	0.383331024	CREDITOR	lure	n/a	n/a	n/a	n/a	1
169.632	0.716694252	HENCHMEN	lure	n/a	n/a	n/a	n/a	1
170.349	0.666617561	PINKIE	lure	n/a	n/a	n/a	n/a	1
171.016	0.449996546	CHECKPOINT	lure	n/a	n/a	n/a	n/a	1
171.466	0.369997982	INSET	lure	n/a	n/a	n/a	n/a	1
171.836	0.746650672	MAILER	lure	n/a	n/a	n/a	n/a	1
172.582	0.533327459	REBELLION	lure	n/a	n/a	n/a	n/a	1
173.116	0.499996653	CULTURE	lure	n/a	n/a	n/a	n/a	1
173.616	0.383324826	ELECTOR	lure	n/a	n/a	n/a	n/a	1
173.999	0.533325455	NEWSREEL	lure	n/a	n/a	n/a	n/a	1
174.532	0.616663208	HAMMER	short	n/a	n/a	n/a	n/a	1
175.149	0.766652569	HASP	lure	n/a	n/a	n/a	n/a	1
175.916	0.449991121	MAGNATE	lure	n/a	n/a	n/a	n/a	1
176.366	0.666710996	PLIGHT	lure	n/a	n/a	n/a	n/a	1
177.032	0.499992807	FIREBIRD	lure	n/a	n/a	n/a	n/a	1
177.532	0.466608125	HORSEMAN	lure	n/a	n/a	n/a	n/a	1
177.999	0.583379421	NUT	lure	n/a	n/a	n/a	n/a	1
178.582	0.383325149	PATRON	lure	n/a	n/a	n/a	n/a	1
178.966	0.533280188	GILL	lure	n/a	n/a	n/a	n/a	1
179.499	0.433322213	MAINSPRING	lure	n/a	n/a	n/a	n/a	1
179.932	0.416661091	DOORSTOP	lure	n/a	n/a	n/a	n/a	1
180.349	0.483386565	FATSO	lure	n/a	n/a	n/a	n/a	1
180.832	0.71659697	GIGGLE	lure	n/a	n/a	n/a	n/a	1
181.549	0.649991521	SHOTGUN	lure	n/a	n/a	n/a	n/a	1
182.199	0.516663637	IDEOLOGY	lure	n/a	n/a	n/a	n/a	1
182.715	0.616660066	WALLET	short	n/a	n/a	n/a	n/a	1
183.332	0.433321885	RATION	lure	n/a	n/a	n/a	n/a	1
183.765	0.699996468	DALE	lure	n/a	n/a	n/a	n/a	1
184.465	0.40004054	CONFIDANTE	lure	n/a	n/a	n/a	n/a	1
184.865	0.683278954	FEATHERBED	lure	n/a	n/a	n/a	n/a	1
185.549	0.499990165	DOWNER	lure	n/a	n/a	n/a	n/a	1
186.049	0.699990327	TORPEDO	lure	n/a	n/a	n/a	n/a	1
186.749	0.733325793	ROWBOAT	lure	n/a	n/a	n/a	n/a	1
187.482	0.733317779	IRONWORK	lure	n/a	n/a	n/a	n/a	1
188.215	0.466664848	INVALID	lure	n/a	n/a	n/a	n/a	1
188.682	0.516655047	AMENDMENT	lure	n/a	n/a	n/a	n/a	1
189.199	0.316665142	DOORSTEP	lure	n/a	n/a	n/a	n/a	1
189.515	0.366661269	CLOVER	lure	n/a	n/a	n/a	n/a	1
189.882	0.433377431	EDITORSHIP	lure	n/a	n/a	n/a	n/a	1
190.315	0.399945209	ENSIGN	lure	n/a	n/a	n/a	n/a	1
190.715	2.016639962	CURB	long	n/a	n/a	n/a	n/a	1
192.732	0.516662045	MORTICIAN	lure	n/a	n/a	n/a	n/a	1
193.249	0.433322348	CANISTER	lure	n/a	n/a	n/a	n/a	1
193.682	0.433333788	FISSURE	lure	n/a	n/a	n/a	n/a	1
194.115	0.549988077	ARCHANGEL	lure	n/a	n/a	n/a	n/a	1
194.665	0.699995205	CANON	lure	n/a	n/a	n/a	n/a	1
195.365	0.716651687	INSISTENCE	lure	n/a	n/a	n/a	n/a	1
196.082	0.349997349	RAINWATER	lure	n/a	n/a	n/a	n/a	1
196.432	0.716658525	RADICALISM	lure	n/a	n/a	n/a	n/a	1
197.149	0.333328291	LIBATION	lure	n/a	n/a	n/a	n/a	1
197.482	0.683322269	MISPRINT	lure	n/a	n/a	n/a	n/a	1
198.165	0.416719388	MAINSTREAM	lure	n/a	n/a	n/a	n/a	1
198.582	0.616604795	ROOT	short	n/a	n/a	n/a	n/a	1
199.199	0.399987636	BRIDEGROOM	lure	n/a	n/a	n/a	n/a	1
199.599	0.466666836	REFINERY	lure	n/a	n/a	n/a	n/a	1
200.065	0.549992481	SALINE	lure	n/a	n/a	n/a	n/a	1
200.615	0.483320565	LINESMAN	lure	n/a	n/a	n/a	n/a	1
201.099	0.400000917	MOCCASIN	lure	n/a	n/a	n/a	n/a	1
201.499	0.683370706	MEN	lure	n/a	n/a	n/a	n/a	1
202.182	0.483327522	WIT	lure	n/a	n/a	n/a	n/a	1
202.665	0.570492897	JAGUAR	lure	n/a	n/a	n/a	n/a	1
203.236	0.779440344	SECRECY	lure	n/a	n/a	n/a	n/a	1
204.015	0.616658791	ACTIVIST	lure	n/a	n/a	n/a	n/a	1
204.632	0.699985077	BANKRUPTCY	lure	n/a	n/a	n/a	n/a	1
205.332	0.499999921	SUPPRESSOR	lure	n/a	n/a	n/a	n/a	1
205.832	0.466661215	VIABILITY	lure	n/a	n/a	n/a	n/a	1
206.298	0.549990727	HEMP	lure	n/a	n/a	n/a	n/a	1
206.848	2.016640681	LETTER	long	n/a	n/a	n/a	n/a	1
208.865	0.570302415	CATWALK	lure	n/a	n/a	n/a	n/a	1
209.435	0.713007318	BLOCKAGE	lure	n/a	n/a	n/a	n/a	1
210.148	0.38332793	CANNONBALL	lure	n/a	n/a	n/a	n/a	1
210.532	0.749994806	WOODPILE	lure	n/a	n/a	n/a	n/a	1
211.282	0.733320473	HUMANKIND	lure	n/a	n/a	n/a	n/a	1
212.015	0.636696582	CHURCHYARD	lure	n/a	n/a	n/a	n/a	1
212.652	0.563285758	REFLEX	lure	n/a	n/a	n/a	n/a	1
213.215	0.416712962	GROUNDWORK	lure	n/a	n/a	n/a	n/a	1
213.632	0.366614382	SPILLWAY	lure	n/a	n/a	n/a	n/a	1
213.998	0.666653523	GUESSWORK	lure	n/a	n/a	n/a	n/a	1
214.665	0.766662376	LIBERTY	lure	n/a	n/a	n/a	n/a	1
215.432	2.016638591	FRONTIER	long	n/a	n/a	n/a	n/a	1
217.448	0.399989218	ADMIRER	lure	n/a	n/a	n/a	n/a	1
217.848	0.799992575	WHIM	lure	n/a	n/a	n/a	n/a	1
218.648	0.683327418	CARTON	lure	n/a	n/a	n/a	n/a	1
219.332	0.733316792	SOMEONE	lure	n/a	n/a	n/a	n/a	1
220.065	0.551529278	STOCKADE	lure	n/a	n/a	n/a	n/a	1
220.616	0.315125842	CRYPTOGRAM	lure	n/a	n/a	n/a	n/a	1
220.932	0.449997916	PASSIVITY	lure	n/a	n/a	n/a	n/a	1
221.382	0.73331998	ACETONE	lure	n/a	n/a	n/a	n/a	1
222.115	0.549994024	RACEWAY	lure	n/a	n/a	n/a	n/a	1
222.665	0.4166657	ERA	lure	n/a	n/a	n/a	n/a	1
223.082	0.616657906	JAWBREAKER	lure	n/a	n/a	n/a	n/a	1
223.698	0.466725139	BOBTAIL	lure	n/a	n/a	n/a	n/a	1
224.165	0.666587514	JAG	lure	n/a	n/a	n/a	n/a	1
224.832	0.549992792	COMPLETION	lure	n/a	n/a	n/a	n/a	1
225.382	0.399994385	VECTOR	lure	n/a	n/a	n/a	n/a	1
225.782	0.71665719	DIALECT	lure	n/a	n/a	n/a	n/a	1
226.498	0.416661744	WICKERWORK	lure	n/a	n/a	n/a	n/a	1
226.915	n/a	SALTWATER	lure	n/a	n/a	n/a	n/a	1
238.015	0.349996238	EARTHQUAKE	lure	n/a	n/a	n/a	n/a	1
238.365	0.733322364	SKATER	lure	n/a	n/a	n/a	n/a	1
239.098	0.516662916	OVERSPILL	lure	n/a	n/a	n/a	n/a	1
239.615	0.39998828	INCUMBENCY	lure	n/a	n/a	n/a	n/a	1
240.015	0.699993956	GUARDIAN	lure	n/a	n/a	n/a	n/a	1
240.715	0.634665207	LITERATURE	lure	n/a	n/a	n/a	n/a	1
241.349	0.51531894	HOOLIGAN	lure	n/a	n/a	n/a	n/a	1
241.865	0.616658903	CARD	short	n/a	n/a	n/a	n/a	1
242.481	0.383330485	POETRY	lure	n/a	n/a	n/a	n/a	1
242.865	0.3999917	BALLERINA	lure	n/a	n/a	n/a	n/a	1
243.265	0.466657064	BUCKTOOTH	lure	n/a	n/a	n/a	n/a	1
243.731	0.450045606	FLOODGATE	lure	n/a	n/a	n/a	n/a	1
244.181	0.483275102	COWARD	lure	n/a	n/a	n/a	n/a	1
244.665	0.650030762	HYPHEN	lure	n/a	n/a	n/a	n/a	1
245.315	0.549959959	FLORA	lure	n/a	n/a	n/a	n/a	1
245.865	0.733319126	VOCATION	lure	n/a	n/a	n/a	n/a	1
246.598	0.566662401	SUPPER	lure	n/a	n/a	n/a	n/a	1
247.165	0.399992252	MADMAN	lure	n/a	n/a	n/a	n/a	1
247.565	0.583327813	PECAN	lure	n/a	n/a	n/a	n/a	1
248.148	0.749987297	MEDIA	lure	n/a	n/a	n/a	n/a	1
248.898	0.733320909	TROMBONE	lure	n/a	n/a	n/a	n/a	1
249.631	0.533329383	LIBERALITY	lure	n/a	n/a	n/a	n/a	1
250.165	2.016642255	DOME	long	n/a	n/a	n/a	n/a	1
252.181	0.433327772	ODE	lure	n/a	n/a	n/a	n/a	1
252.615	0.55004126	OFFICER	lure	n/a	n/a	n/a	n/a	1
253.165	0.716604443	ICEBREAKER	lure	n/a	n/a	n/a	n/a	1
253.881	0.749991823	ISOTOPE	lure	n/a	n/a	n/a	n/a	1
254.631	0.616657355	HAMBURGER	lure	n/a	n/a	n/a	n/a	1
255.248	0.60003166	TENEMENT	lure	n/a	n/a	n/a	n/a	1
255.848	0.499954162	STUMPER	lure	n/a	n/a	n/a	n/a	1
256.348	0.600033506	MISDEAL	lure	n/a	n/a	n/a	n/a	1
256.948	0.499947806	SUBTLETY	lure	n/a	n/a	n/a	n/a	1
257.448	0.466663077	REVERENCE	lure	n/a	n/a	n/a	n/a	1
257.914	0.333327955	COLLECTION	lure	n/a	n/a	n/a	n/a	1
258.248	2.016644462	DIRT	long	n/a	n/a	n/a	n/a	1
260.264	0.483325459	FLUENCY	lure	n/a	n/a	n/a	n/a	1
260.748	0.316659513	SUCROSE	lure	n/a	n/a	n/a	n/a	1
261.064	0.433324615	CUBBYHOLE	lure	n/a	n/a	n/a	n/a	1
261.498	0.46666254	HOSEPIPE	lure	n/a	n/a	n/a	n/a	1
261.964	0.533327975	RACER	lure	n/a	n/a	n/a	n/a	1
262.498	0.616699346	ORIGINATOR	lure	n/a	n/a	n/a	n/a	1
263.114	0.399955416	NONPAYMENT	lure	n/a	n/a	n/a	n/a	1
263.514	0.583327024	BEDFELLOW	lure	n/a	n/a	n/a	n/a	1
264.098	0.433322338	RECREATION	lure	n/a	n/a	n/a	n/a	1
264.531	0.433326324	CLASSROOM	lure	n/a	n/a	n/a	n/a	1
264.964	0.699993531	VAPIDITY	lure	n/a	n/a	n/a	n/a	1
265.664	0.616656833	COMPLICITY	lure	n/a	n/a	n/a	n/a	1
266.281	0.400031963	WHISKER	lure	n/a	n/a	n/a	n/a	1
266.681	2.016610584	FRONTIER	long	n/a	n/a	n/a	n/a	1
268.698	0.683317731	ROMPER	lure	n/a	n/a	n/a	n/a	1
269.381	0.599990633	SEMICOLON	lure	n/a	n/a	n/a	n/a	1
269.981	0.54999515	HEROISM	lure	n/a	n/a	n/a	n/a	1
270.531	0.499987833	SCENE	lure	n/a	n/a	n/a	n/a	1
271.031	0.449996906	RECEIVER	lure	n/a	n/a	n/a	n/a	1
271.481	0.383328118	PRECEPTOR	lure	n/a	n/a	n/a	n/a	1
271.864	0.48332878	MONSTER	lure	n/a	n/a	n/a	n/a	1
272.348	0.549987891	LANTERN	lure	n/a	n/a	n/a	n/a	1
272.898	0.416665226	GESTATION	lure	n/a	n/a	n/a	n/a	1
273.314	0.749990561	VITALITY	lure	n/a	n/a	n/a	n/a	1
274.064	0.649994807	LAD	lure	n/a	n/a	n/a	n/a	1
274.714	0.716650675	SLIPSTREAM	lure	n/a	n/a	n/a	n/a	1
275.431	0.616661508	TIMBER	short	n/a	n/a	n/a	n/a	1
276.048	0.68332112	DROPOUT	lure	n/a	n/a	n/a	n/a	1
276.731	0.649989241	MILITIA	lure	n/a	n/a	n/a	n/a	1
277.381	0.449993929	NEPHEW	lure	n/a	n/a	n/a	n/a	1
277.831	0.616663691	THROWBACK	lure	n/a	n/a	n/a	n/a	1
278.448	0.716656996	LIVERWURST	lure	n/a	n/a	n/a	n/a	1
279.164	0.316657256	KNUCKLE	lure	n/a	n/a	n/a	n/a	1
279.481	0.416660672	NECKWEAR	lure	n/a	n/a	n/a	n/a	1
279.897	0.383337345	SEDATIVE	lure	n/a	n/a	n/a	n/a	1
280.281	0.635205543	MOONBEAM	lure	n/a	n/a	n/a	n/a	1
280.916	0.581435799	CUPID	lure	n/a	n/a	n/a	n/a	1
281.497	0.683324307	PRESTIGE	lure	n/a	n/a	n/a	n/a	1
282.181	0.549992262	ANGLER	lure	n/a	n/a	n/a	n/a	1
282.731	0.566662121	INSTANCE	lure	n/a	n/a	n/a	n/a	1
283.297	0.333326017	IMPUDENCE	lure	n/a	n/a	n/a	n/a	1
283.631	2.016642892	CURB	long	n/a	n/a	n/a	n/a	1
285.647	0.73332293	JOURNAL	lure	n/a	n/a	n/a	n/a	1
286.381	0.483330734	RENDITION	lure	n/a	n/a	n/a	n/a	1
286.864	0.349997486	COLLARBONE	lure	n/a	n/a	n/a	n/a	1
287.214	0.583320711	BRAVADO	lure	n/a	n/a	n/a	n/a	1
287.797	0.683324627	WINDFALL	lure	n/a	n/a	n/a	n/a	1
288.481	0.516655707	FREEZER	lure	n/a	n/a	n/a	n/a	1
288.997	0.36666809	GRINDSTONE	lure	n/a	n/a	n/a	n/a	1
289.364	0.566656356	INCIDENT	lure	n/a	n/a	n/a	n/a	1
289.931	0.466656068	SCORPION	lure	n/a	n/a	n/a	n/a	1
290.397	0.616661145	DELIVERY	lure	n/a	n/a	n/a	n/a	1
291.014	0.349999892	WOMANIZER	lure	n/a	n/a	n/a	n/a	1
291.364	0.4499872	OCEANSIDE	lure	n/a	n/a	n/a	n/a	1
291.814	0.650000346	MUZZLE	short	n/a	n/a	n/a	n/a	1
292.464	0.63331812	DECORATION	lure	n/a	n/a	n/a	n/a	1
293.097	0.416660572	ANECDOTE	lure	n/a	n/a	n/a	n/a	1
293.514	0.699989197	STABILITY	lure	n/a	n/a	n/a	n/a	1
294.214	0.60123676	CHILDREN	lure	n/a	n/a	n/a	n/a	1
294.815	0.648751032	BREAKAGE	lure	n/a	n/a	n/a	n/a	1
295.464	0.583323148	BEESWAX	lure	n/a	n/a	n/a	n/a	1
296.047	0.499996902	SYNONYM	lure	n/a	n/a	n/a	n/a	1
296.547	0.53332108	INSTRUMENT	lure	n/a	n/a	n/a	n/a	1
297.081	0.683324225	TREE	lure	n/a	n/a	n/a	n/a	1
297.764	0.483330147	FALSEHOOD	lure	n/a	n/a	n/a	n/a	1
298.247	0.383323207	DIVIDER	lure	n/a	n/a	n/a	n/a	1
298.631	0.683331074	CONFERENCE	lure	n/a	n/a	n/a	n/a	1
299.314	0.516655833	NOTATION	lure	n/a	n/a	n/a	n/a	1
299.831	1.016649971	ELDERBERRY	fruit	n/a	759	2	2	1
300.847	0.766663172	NUTCRACKER	lure	n/a	n/a	n/a	n/a	1
301.614	0.383323563	DOCKSIDE	lure	n/a	n/a	n/a	n/a	1
301.997	0.733324299	LIGHTNING	lure	n/a	n/a	n/a	n/a	1
302.731	0.516665627	PENTHOUSE	lure	n/a	n/a	n/a	n/a	1
303.247	0.633365823	SCUT	lure	n/a	n/a	n/a	n/a	1
303.881	0.416620194	ELECTRON	lure	n/a	n/a	n/a	n/a	1
304.297	0.499988015	CABOOSE	lure	n/a	n/a	n/a	n/a	1
304.797	0.635198063	FARMER	lure	n/a	n/a	n/a	n/a	1
305.432	0.648115073	WESTERNER	lure	n/a	n/a	n/a	n/a	1
306.08	0.383327121	IMAGERY	lure	n/a	n/a	n/a	n/a	1
306.464	0.733323414	GOULASH	lure	n/a	n/a	n/a	n/a	1
307.197	0.566718272	PREDICTION	lure	n/a	n/a	n/a	n/a	1
307.764	0.583272846	QUOTATION	lure	n/a	n/a	n/a	n/a	1
308.347	0.616658094	SAWDUST	short	n/a	n/a	n/a	n/a	1
308.964	0.383322167	CELIBACY	lure	n/a	n/a	n/a	n/a	1
309.347	0.633329328	CONCEPT	lure	n/a	n/a	n/a	n/a	1
309.98	0.683321941	HYPOCRITE	lure	n/a	n/a	n/a	n/a	1
310.664	0.583328343	SKEPTICISM	lure	n/a	n/a	n/a	n/a	1
311.247	0.683325373	MOOSE	lure	n/a	n/a	n/a	n/a	1
311.93	0.333377758	DERAILMENT	lure	n/a	n/a	n/a	n/a	1
312.264	0.39997965	HISTOLOGY	lure	n/a	n/a	n/a	n/a	1
312.664	0.583287819	TRILOGY	lure	n/a	n/a	n/a	n/a	1
313.247	0.733327504	GAINER	lure	n/a	n/a	n/a	n/a	1
313.98	0.599989624	RATIONALE	lure	n/a	n/a	n/a	n/a	1
314.58	0.716710451	SHEEP	lure	n/a	n/a	n/a	n/a	1
315.297	0.349942323	KITTY	lure	n/a	n/a	n/a	n/a	1
315.647	0.566658672	MERINGUE	lure	n/a	n/a	n/a	n/a	1
316.214	0.633321664	JELLYFISH	lure	n/a	n/a	n/a	n/a	1
316.847	0.616661198	HAMMER	short	n/a	n/a	n/a	n/a	1
317.464	0.68332662	THING	lure	n/a	n/a	n/a	n/a	1
318.147	0.46665708	PARTRIDGE	lure	n/a	n/a	n/a	n/a	1
318.614	0.566661681	INFIELDER	lure	n/a	n/a	n/a	n/a	1
319.18	0.43332693	WISDOM	lure	n/a	n/a	n/a	n/a	1
319.614	0.34999502	NOVELTY	lure	n/a	n/a	n/a	n/a	1
319.964	0.533323209	INITIATOR	lure	n/a	n/a	n/a	n/a	1
320.497	0.683370341	QUARRY	lure	n/a	n/a	n/a	n/a	1
321.18	0.599946829	BRUNT	lure	n/a	n/a	n/a	n/a	1
321.78	0.683324569	MACK	lure	n/a	n/a	n/a	n/a	1
322.464	0.450034153	RECLUSE	lure	n/a	n/a	n/a	n/a	1
322.914	0.48328823	DOLPHIN	lure	n/a	n/a	n/a	n/a	1
323.397	0.399994718	IMPUNITY	lure	n/a	n/a	n/a	n/a	1
323.797	0.566661243	WATERFRONT	lure	n/a	n/a	n/a	n/a	1
324.364	0.616656379	INACTION	lure	n/a	n/a	n/a	n/a	1
324.98	0.733318101	MILKMAID	lure	n/a	n/a	n/a	n/a	1
325.714	0.616664722	ROOT	short	n/a	n/a	n/a	n/a	1
326.33	0.416707095	PUN	lure	n/a	n/a	n/a	n/a	1
326.747	0.516610636	FRIGHT	lure	n/a	n/a	n/a	n/a	1
327.264	0.716656368	LATTER	lure	n/a	n/a	n/a	n/a	1
327.98	0.583329112	DEBTOR	lure	n/a	n/a	n/a	n/a	1
328.564	0.549988017	AIRSPACE	lure	n/a	n/a	n/a	n/a	1
329.113	0.499997704	PREFERENCE	lure	n/a	n/a	n/a	n/a	1
329.613	0.566657456	BEGINNER	lure	n/a	n/a	n/a	n/a	1
330.18	0.349993125	HAMMOCK	lure	n/a	n/a	n/a	n/a	1
330.53	0.366661191	CHAPEL	lure	n/a	n/a	n/a	n/a	1
330.897	0.683325231	VANILLA	lure	n/a	n/a	n/a	n/a	1
331.58	0.533328274	PATRIOTISM	lure	n/a	n/a	n/a	n/a	1
332.113	0.51665669	SUNLIGHT	lure	n/a	n/a	n/a	n/a	1
332.63	0.616659185	ARROWHEAD	lure	n/a	n/a	n/a	n/a	1
333.247	0.483328415	PATTY	lure	n/a	n/a	n/a	n/a	1
333.73	1.016651494	KIWI	fruit	n/a	627	2	2	1
334.747	0.469188914	GUIDEBOOK	lure	n/a	n/a	n/a	n/a	1
335.216	0.464131056	COOKY	lure	n/a	n/a	n/a	n/a	1
335.68	0.416661814	MEMBER	lure	n/a	n/a	n/a	n/a	1
336.097	0.366662196	PHOSPHATE	lure	n/a	n/a	n/a	n/a	1
336.463	0.499992304	QUARTZ	lure	n/a	n/a	n/a	n/a	1
336.963	0.616702916	APOLOGIST	lure	n/a	n/a	n/a	n/a	1
337.58	0.349950556	TURPENTINE	lure	n/a	n/a	n/a	n/a	1
337.93	0.583327889	INHIBITION	lure	n/a	n/a	n/a	n/a	1
338.513	0.383326577	VORTEX	lure	n/a	n/a	n/a	n/a	1
338.897	0.533328452	REVEREND	lure	n/a	n/a	n/a	n/a	1
339.43	0.36666127	CONCOURSE	lure	n/a	n/a	n/a	n/a	1
339.797	0.399992084	DOLLY	lure	n/a	n/a	n/a	n/a	1
340.197	0.516661062	REPUBLIC	lure	n/a	n/a	n/a	n/a	1
340.713	0.366663256	HEADROOM	lure	n/a	n/a	n/a	n/a	1
341.08	0.368623996	ASPHALT	lure	n/a	n/a	n/a	n/a	1
341.449	0.514696666	MARATHON	lure	n/a	n/a	n/a	n/a	1
341.963	2.016640632	SPONGE	long	n/a	n/a	n/a	n/a	1
343.98	0.668002627	VEIN	lure	n/a	n/a	n/a	n/a	1
344.648	0.481977043	VEGETATION	lure	n/a	n/a	n/a	n/a	1
345.13	0.749991122	MOONLIGHT	lure	n/a	n/a	n/a	n/a	1
345.88	0.416661578	CASTOR	lure	n/a	n/a	n/a	n/a	1
346.297	0.666657216	GAUNTLET	lure	n/a	n/a	n/a	n/a	1
346.963	0.620042692	LAPEL	lure	n/a	n/a	n/a	n/a	1
347.583	0.496611779	SYNC	lure	n/a	n/a	n/a	n/a	1
348.08	0.449993633	SPINE	lure	n/a	n/a	n/a	n/a	1
348.53	0.499992365	FEET	lure	n/a	n/a	n/a	n/a	1
349.03	0.733320555	DISK	lure	n/a	n/a	n/a	n/a	1
349.763	0.583330461	COWHIDE	lure	n/a	n/a	n/a	n/a	1
350.347	1.017117075	KIWI	fruit	n/a	643	2	2	1
351.364	0.649521841	CONTRAST	lure	n/a	n/a	n/a	n/a	1
352.013	0.449996345	POLYNOMIAL	lure	n/a	n/a	n/a	n/a	1
352.463	0.56665778	CRAWLSPACE	lure	n/a	n/a	n/a	n/a	1
353.03	0.599994695	BLOWGUN	lure	n/a	n/a	n/a	n/a	1
353.63	0.71665374	LIMELIGHT	lure	n/a	n/a	n/a	n/a	1
354.346	0.433328434	SEABOARD	lure	n/a	n/a	n/a	n/a	1
354.78	0.449995476	DEFECT	lure	n/a	n/a	n/a	n/a	1
355.23	0.399996843	EXTRUSION	lure	n/a	n/a	n/a	n/a	1
355.63	0.733320666	DAIQUIRI	lure	n/a	n/a	n/a	n/a	1
356.363	0.650031321	GLADIATOR	lure	n/a	n/a	n/a	n/a	1
357.013	0.549952388	CLAY	lure	n/a	n/a	n/a	n/a	1
357.563	0.716655606	SCROLLWORK	lure	n/a	n/a	n/a	n/a	1
358.28	0.716657855	HAIRSTYLE	lure	n/a	n/a	n/a	n/a	1
358.996	1.016653298	STRAWBERRY	fruit	n/a	625	2	2	1
360.013	0.716656032	MASCARA	lure	n/a	n/a	n/a	n/a	1
360.73	0.566659107	MEADOW	lure	n/a	n/a	n/a	n/a	1
361.296	0.649997471	HABITAT	lure	n/a	n/a	n/a	n/a	1
361.946	0.433321819	SHIPMATE	lure	n/a	n/a	n/a	n/a	1
362.38	0.733378983	PERCUSSION	lure	n/a	n/a	n/a	n/a	1
363.113	0.449936813	FLAGSTAFF	lure	n/a	n/a	n/a	n/a	1
363.563	0.733323219	FISHERMAN	lure	n/a	n/a	n/a	n/a	1
364.296	0.433331948	ENVOY	lure	n/a	n/a	n/a	n/a	1
364.73	0.566654979	SIMILARITY	lure	n/a	n/a	n/a	n/a	1
365.296	0.633328019	ROCKER	lure	n/a	n/a	n/a	n/a	1
365.93	0.516656219	RELEVANCY	lure	n/a	n/a	n/a	n/a	1
366.446	0.599992372	PRIORITY	lure	n/a	n/a	n/a	n/a	1
367.046	0.350068724	CAFETERIA	lure	n/a	n/a	n/a	n/a	1
367.396	0.616589605	COUNCIL	short	n/a	n/a	n/a	n/a	1
368.013	0.516655967	GEOGRAPHY	lure	n/a	n/a	n/a	n/a	1
368.53	0.566661665	CHINAWARE	lure	n/a	n/a	n/a	n/a	1
369.096	0.666657203	MINER	lure	n/a	n/a	n/a	n/a	1
369.763	0.399994407	ABSENCE	lure	n/a	n/a	n/a	n/a	1
370.163	0.466659215	CELLIST	lure	n/a	n/a	n/a	n/a	1
370.63	0.518450598	MONTH	lure	n/a	n/a	n/a	n/a	1
371.148	0.314872521	PROVIDENCE	lure	n/a	n/a	n/a	n/a	1
371.463	0.616657873	QUICHE	lure	n/a	n/a	n/a	n/a	1
372.08	0.366662376	GIRLHOOD	lure	n/a	n/a	n/a	n/a	1
372.446	0.48332771	SURFBOARD	lure	n/a	n/a	n/a	n/a	1
372.93	0.600041181	TELEGRAM	lure	n/a	n/a	n/a	n/a	1
373.53	0.654771051	LITERACY	lure	n/a	n/a	n/a	n/a	1
374.184	0.428499332	PHONEBOOTH	lure	n/a	n/a	n/a	n/a	1
374.613	0.699985673	ABDOMEN	lure	n/a	n/a	n/a	n/a	1
375.313	0.483327165	DISUNION	lure	n/a	n/a	n/a	n/a	1
375.796	2.016642924	FOREST	long	n/a	n/a	n/a	n/a	1
377.813	0.783323326	RAINCOAT	lure	n/a	n/a	n/a	n/a	1
378.596	0.683322954	DISCOVERER	lure	n/a	n/a	n/a	n/a	1
379.279	0.749989943	MISSTEP	lure	n/a	n/a	n/a	n/a	1
380.029	0.666661632	REGULATOR	lure	n/a	n/a	n/a	n/a	1
380.696	0.700037132	AVALANCHE	lure	n/a	n/a	n/a	n/a	1
381.396	0.483277493	KNOTHOLE	lure	n/a	n/a	n/a	n/a	1
381.879	0.549992165	DECISION	lure	n/a	n/a	n/a	n/a	1
382.429	0.583328045	GUNSLINGER	lure	n/a	n/a	n/a	n/a	1
383.013	0.433361703	HANGUP	lure	n/a	n/a	n/a	n/a	1
383.446	0.733335756	LICENSEE	lure	n/a	n/a	n/a	n/a	1
384.179	0.616610638	COLUMN	short	n/a	n/a	n/a	n/a	1
384.796	0.466657017	PERMIT	lure	n/a	n/a	n/a	n/a	1
385.263	0.599994911	DIARY	lure	n/a	n/a	n/a	n/a	1
385.863	0.766654833	NEWSPRINT	lure	n/a	n/a	n/a	n/a	1
386.629	0.450048843	IDIOM	lure	n/a	n/a	n/a	n/a	1
387.079	0.349937793	LIMBO	lure	n/a	n/a	n/a	n/a	1
387.429	0.667958877	TURNIP	lure	n/a	n/a	n/a	n/a	1
388.097	0.432078005	IMMATURITY	lure	n/a	n/a	n/a	n/a	1
388.529	0.74998736	TABULATION	lure	n/a	n/a	n/a	n/a	1
389.279	0.716606927	OBSTACLE	lure	n/a	n/a	n/a	n/a	1
389.996	0.38332826	ANTENNA	lure	n/a	n/a	n/a	n/a	1
390.379	0.366664292	CONTROLLER	lure	n/a	n/a	n/a	n/a	1
390.746	0.633326768	NONDRIVER	lure	n/a	n/a	n/a	n/a	1
391.379	0.566658504	LANDSCAPE	lure	n/a	n/a	n/a	n/a	1
391.946	0.533325707	ROYALTY	lure	n/a	n/a	n/a	n/a	1
392.479	1.016649315	ELDERBERRY	fruit	n/a	678	2	2	1
393.496	0.599991671	FLAMINGO	lure	n/a	n/a	n/a	n/a	1
394.096	0.550044935	FELLA	lure	n/a	n/a	n/a	n/a	1
394.646	0.333586058	TAMBOURINE	lure	n/a	n/a	n/a	n/a	1
394.98	0.483017994	MNEMONIC	lure	n/a	n/a	n/a	n/a	1
395.463	0.616660833	EYESTRAIN	lure	n/a	n/a	n/a	n/a	1
396.079	0.383327211	CRIME	lure	n/a	n/a	n/a	n/a	1
396.463	0.733324959	ATMOSPHERE	lure	n/a	n/a	n/a	n/a	1
397.196	0.433326834	INTUITION	lure	n/a	n/a	n/a	n/a	1
397.629	0.583329785	LINEN	lure	n/a	n/a	n/a	n/a	1
398.213	0.549985757	CORTEX	lure	n/a	n/a	n/a	n/a	1
398.763	0.433327362	CHOPSTICK	lure	n/a	n/a	n/a	n/a	1
399.196	0.666709052	BULKHEAD	lure	n/a	n/a	n/a	n/a	1
399.863	0.516614431	BUGABOO	lure	n/a	n/a	n/a	n/a	1
400.379	0.599990325	DOCUMENT	lure	n/a	n/a	n/a	n/a	1
400.979	2.016637333	DITCH	long	n/a	n/a	n/a	n/a	1
402.996	0.533323422	CONIFER	lure	n/a	n/a	n/a	n/a	1
403.529	0.650056947	STORYBOOK	lure	n/a	n/a	n/a	n/a	1
404.179	0.54992921	CHICKPEA	lure	n/a	n/a	n/a	n/a	1
404.729	0.5833799	ADVISEMENT	lure	n/a	n/a	n/a	n/a	1
405.313	0.4999973	WARHORSE	lure	n/a	n/a	n/a	n/a	1
405.813	0.566603415	LIGHTFOOT	lure	n/a	n/a	n/a	n/a	1
406.379	0.466658727	SEAWAY	lure	n/a	n/a	n/a	n/a	1
406.846	0.400046873	LAMBSKIN	lure	n/a	n/a	n/a	n/a	1
407.246	0.399941271	MITTEN	lure	n/a	n/a	n/a	n/a	1
407.646	0.633325002	LIMERICK	lure	n/a	n/a	n/a	n/a	1
408.279	0.366663911	SUBURB	lure	n/a	n/a	n/a	n/a	1
408.646	0.499990426	LOCALITY	lure	n/a	n/a	n/a	n/a	1
409.146	0.616662619	ROAD	short	n/a	n/a	n/a	n/a	1
409.762	0.366657358	BANDSTAND	lure	n/a	n/a	n/a	n/a	1
410.129	0.650048268	ARMORY	lure	n/a	n/a	n/a	n/a	1
410.779	0.333316305	FANFARE	lure	n/a	n/a	n/a	n/a	1
411.112	0.433285622	CURRENCY	lure	n/a	n/a	n/a	n/a	1
411.546	0.433376269	ALGEBRA	lure	n/a	n/a	n/a	n/a	1
411.979	0.48327766	CRYPT	lure	n/a	n/a	n/a	n/a	1
412.462	0.653966195	MARIONETTE	lure	n/a	n/a	n/a	n/a	1
413.116	0.762681357	PATRIMONY	lure	n/a	n/a	n/a	n/a	1
413.879	0.599991896	FRACTURE	lure	n/a	n/a	n/a	n/a	1
414.479	0.633325921	TENDENCY	lure	n/a	n/a	n/a	n/a	1
415.112	0.649986475	ENTIRETY	lure	n/a	n/a	n/a	n/a	1
415.762	0.335355907	IMMOBILITY	lure	n/a	n/a	n/a	n/a	1
416.098	0.4313566	LADYBIRD	lure	n/a	n/a	n/a	n/a	1
416.529	0.54994072	KINSHIP	lure	n/a	n/a	n/a	n/a	1
417.079	0.399992689	MAESTRO	lure	n/a	n/a	n/a	n/a	1
417.479	2.016639618	ELBOW	long	n/a	n/a	n/a	n/a	1
419.496	0.483325893	VIOLENCE	lure	n/a	n/a	n/a	n/a	1
419.979	0.749990569	SEDIMENT	lure	n/a	n/a	n/a	n/a	1
420.729	0.716714408	FOLK	lure	n/a	n/a	n/a	n/a	1
421.446	0.549939361	STATUARY	lure	n/a	n/a	n/a	n/a	1
421.996	0.570780466	NIP	lure	n/a	n/a	n/a	n/a	1
422.566	0.729198405	ASSUMPTION	lure	n/a	n/a	n/a	n/a	1
423.296	0.549990055	TRAILER	lure	n/a	n/a	n/a	n/a	1
423.846	0.366662395	LIGHTSHIP	lure	n/a	n/a	n/a	n/a	1
424.212	0.483331087	SUNLAMP	lure	n/a	n/a	n/a	n/a	1
424.696	0.483324741	GRANDEUR	lure	n/a	n/a	n/a	n/a	1
425.179	0.549991373	GIVEAWAY	lure	n/a	n/a	n/a	n/a	1
425.729	1.016657073	LIME	fruit	n/a	724	2	2	1
426.746	0.63338085	SOFTY	lure	n/a	n/a	n/a	n/a	1
427.379	0.49993552	PUZZLEMENT	lure	n/a	n/a	n/a	n/a	1
427.879	0.733320179	SHOPPER	lure	n/a	n/a	n/a	n/a	1
428.612	0.566663391	JOGGER	lure	n/a	n/a	n/a	n/a	1
429.179	0.316710759	CARDIGAN	lure	n/a	n/a	n/a	n/a	1
429.496	0.588096331	GUERRILLA	lure	n/a	n/a	n/a	n/a	1
430.084	0.761836739	DISCIPLE	lure	n/a	n/a	n/a	n/a	1
430.845	0.566653997	BIOGRAPHER	lure	n/a	n/a	n/a	n/a	1
431.412	0.549994653	LEXICON	lure	n/a	n/a	n/a	n/a	1
431.962	0.449996859	DEERSKIN	lure	n/a	n/a	n/a	n/a	1
432.412	0.699990856	PEPTIDE	lure	n/a	n/a	n/a	n/a	1
433.112	0.599987975	GEESE	lure	n/a	n/a	n/a	n/a	1
433.712	2.016643658	LETTER	long	n/a	n/a	n/a	n/a	1
435.729	0.383324705	OCCUPANCY	lure	n/a	n/a	n/a	n/a	1
436.112	0.483330102	LOOKER	lure	n/a	n/a	n/a	n/a	1
436.595	0.716654916	CYLINDER	lure	n/a	n/a	n/a	n/a	1
437.312	0.716660397	INDIGNITY	lure	n/a	n/a	n/a	n/a	1
438.029	0.733321698	QUARTET	lure	n/a	n/a	n/a	n/a	1
438.762	0.383375698	SAILOR	lure	n/a	n/a	n/a	n/a	1
439.145	0.483325692	AIRBASE	lure	n/a	n/a	n/a	n/a	1
439.629	0.766667293	ARTISAN	lure	n/a	n/a	n/a	n/a	1
440.395	0.69993369	MANDARIN	lure	n/a	n/a	n/a	n/a	1
441.095	0.633321506	DEPOT	lure	n/a	n/a	n/a	n/a	1
441.729	0.483327349	VOGUE	lure	n/a	n/a	n/a	n/a	1
442.212	0.616660582	WALLET	short	n/a	n/a	n/a	n/a	1
442.829	0.483327621	GRAM	lure	n/a	n/a	n/a	n/a	1
443.312	0.749988166	THUG	lure	n/a	n/a	n/a	n/a	1
444.062	0.583324464	CORROSION	lure	n/a	n/a	n/a	n/a	1
444.645	0.349996442	CONE	lure	n/a	n/a	n/a	n/a	1
444.995	0.333376465	DUTY	lure	n/a	n/a	n/a	n/a	1
445.329	0.666609663	TIGHTROPE	lure	n/a	n/a	n/a	n/a	1
445.995	0.433328883	CENTRALITY	lure	n/a	n/a	n/a	n/a	1
446.429	0.399994356	IRRITATION	lure	n/a	n/a	n/a	n/a	1
446.829	0.383329656	KINSFOLK	lure	n/a	n/a	n/a	n/a	1
447.212	0.466656748	BOUNTY	lure	n/a	n/a	n/a	n/a	1
447.679	0.40004241	WHOPPER	lure	n/a	n/a	n/a	n/a	1
448.079	0.416611166	CHEEK	lure	n/a	n/a	n/a	n/a	1
448.495	0.433329329	ADRENALIN	lure	n/a	n/a	n/a	n/a	1
448.929	0.649990907	SQUAD	lure	n/a	n/a	n/a	n/a	1
449.579	0.416660679	STOOL	lure	n/a	n/a	n/a	n/a	1
449.995	2.050033504	JAIL	long	n/a	n/a	n/a	n/a	1
452.045	0.583263216	WATCHMAKER	lure	n/a	n/a	n/a	n/a	1
452.628	0.466660424	DOMICILE	lure	n/a	n/a	n/a	n/a	1
453.095	0.399998969	EVENING	lure	n/a	n/a	n/a	n/a	1
453.495	0.333328917	PLAYTIME	lure	n/a	n/a	n/a	n/a	1
453.828	0.383326949	ROSEMARY	lure	n/a	n/a	n/a	n/a	1
454.212	0.516706394	PLURALISM	lure	n/a	n/a	n/a	n/a	1
454.729	0.466617047	COWHAND	lure	n/a	n/a	n/a	n/a	1
455.195	0.566652366	EVERYTHING	lure	n/a	n/a	n/a	n/a	1
455.762	0.699997974	IMBECILE	lure	n/a	n/a	n/a	n/a	1
456.462	0.399990314	PARCHMENT	lure	n/a	n/a	n/a	n/a	1
456.862	0.499992648	MISHAP	lure	n/a	n/a	n/a	n/a	1
457.362	0.666661654	JEWELER	lure	n/a	n/a	n/a	n/a	1
458.028	0.749985862	DUNCE	lure	n/a	n/a	n/a	n/a	1
458.778	0.749988944	PLEASANTRY	lure	n/a	n/a	n/a	n/a	1
459.528	0.349995384	DETENTION	lure	n/a	n/a	n/a	n/a	1
459.878	0.733325779	PERISCOPE	lure	n/a	n/a	n/a	n/a	1
460.612	0.383330806	BAGGAGE	lure	n/a	n/a	n/a	n/a	1
460.995	0.733316644	LANE	lure	n/a	n/a	n/a	n/a	1
461.728	0.750042833	SUBSPACE	lure	n/a	n/a	n/a	n/a	1
462.478	0.666608016	CEREBRUM	lure	n/a	n/a	n/a	n/a	1
463.145	0.533323416	RICE	lure	n/a	n/a	n/a	n/a	1
463.678	0.599995894	BUTTONHOOK	lure	n/a	n/a	n/a	n/a	1
464.278	0.583323328	GLIMPSE	lure	n/a	n/a	n/a	n/a	1
464.862	n/a	PIANIST	lure	n/a	n/a	n/a	n/a	1