onset	duration	stim	cond	RT	resp	cresp	acc
4.047	0.366721826	CHAMELEON	lure	n/a	n/a	n/a	1
4.414	0.549994464	DOWNTURN	lure	n/a	n/a	n/a	1
4.964	0.4332666	BEDPOST	lure	n/a	n/a	n/a	1
5.397	0.349993828	BEANSTALK	lure	n/a	n/a	n/a	1
5.747	0.549987208	SUNSHINE	lure	n/a	n/a	n/a	1
6.297	0.483328687	EXTENSION	lure	n/a	n/a	n/a	1
6.78	0.399998188	BRUTALITY	lure	n/a	n/a	n/a	1
7.18	0.450070804	CALF	lure	n/a	n/a	n/a	1
7.63	2.016560338	DITCH	long	n/a	n/a	n/a	1
9.647	0.616659031	SPREE	lure	n/a	n/a	n/a	1
10.264	0.449993233	PUDDLE	lure	n/a	n/a	n/a	1
10.714	0.533329116	SERVILITY	lure	n/a	n/a	n/a	1
11.247	0.549989343	SUNBONNET	lure	n/a	n/a	n/a	1
11.797	0.533326044	PHYSICIAN	lure	n/a	n/a	n/a	1
12.33	0.749989832	SELLER	lure	n/a	n/a	n/a	1
13.08	0.349995348	AGITATION	lure	n/a	n/a	n/a	1
13.43	0.599991889	AORTA	lure	n/a	n/a	n/a	1
14.03	0.433326021	BYLAW	lure	n/a	n/a	n/a	1
14.464	0.433328037	YESTERYEAR	lure	n/a	n/a	n/a	1
14.897	0.649988477	DIGGER	lure	n/a	n/a	n/a	1
15.547	0.516664329	WEIRDO	lure	n/a	n/a	n/a	1
16.064	2.01664142	CURB	long	n/a	n/a	n/a	1
18.08	0.416657595	CROUTON	lure	n/a	n/a	n/a	1
18.497	0.616659445	ROADWAY	lure	n/a	n/a	n/a	1
19.113	0.366658306	CRUISER	lure	n/a	n/a	n/a	1
19.48	0.733326318	INCREMENT	lure	n/a	n/a	n/a	1
20.213	0.36666433	DRAY	lure	n/a	n/a	n/a	1
20.58	0.516659615	BONDSMAN	lure	n/a	n/a	n/a	1
21.097	0.68331806	FUTILITY	lure	n/a	n/a	n/a	1
21.78	0.74999398	WAND	lure	n/a	n/a	n/a	1
22.53	0.549992511	BARBARISM	lure	n/a	n/a	n/a	1
23.08	0.383328917	KILT	lure	n/a	n/a	n/a	1
23.463	0.383323054	PEW	lure	n/a	n/a	n/a	1
23.847	0.666663892	AUNTIE	lure	n/a	n/a	n/a	1
24.513	0.616652577	ROOT	short	n/a	n/a	n/a	1
25.13	0.716660039	INVALIDITY	lure	n/a	n/a	n/a	1
25.847	0.366662393	SOMETHING	lure	n/a	n/a	n/a	1
26.213	0.383328528	PARTAKER	lure	n/a	n/a	n/a	1
26.597	0.516695455	DORM	lure	n/a	n/a	n/a	1
27.113	0.799952344	LONGSHIP	lure	n/a	n/a	n/a	1
27.913	0.63332446	SHIPLOAD	lure	n/a	n/a	n/a	1
28.547	0.33337525	CHECKBOOK	lure	n/a	n/a	n/a	1
28.88	0.449944931	PROVISION	lure	n/a	n/a	n/a	1
29.33	0.366667181	JEALOUSY	lure	n/a	n/a	n/a	1
29.697	0.549990386	FEDERATION	lure	n/a	n/a	n/a	1
30.247	0.649990768	KICKBACK	lure	n/a	n/a	n/a	1
30.897	0.649989699	STAIRWELL	lure	n/a	n/a	n/a	1
31.547	0.63332504	LINEAGE	lure	n/a	n/a	n/a	1
32.18	0.649990914	ESCAPADE	lure	n/a	n/a	n/a	1
32.83	0.649993105	COLUMN	short	n/a	n/a	n/a	1
33.48	0.716658004	WORKBOOK	lure	n/a	n/a	n/a	1
34.197	0.400039118	CROISSANT	lure	n/a	n/a	n/a	1
34.597	0.633280495	LOOKOUT	lure	n/a	n/a	n/a	1
35.23	0.516660638	REDNECK	lure	n/a	n/a	n/a	1
35.747	0.719367377	LIGAMENT	lure	n/a	n/a	n/a	1
36.466	0.580609276	HIDEAWAY	lure	n/a	n/a	n/a	1
37.047	0.350000252	INNOCENCE	lure	n/a	n/a	n/a	1
37.397	0.399993642	JOURNALIST	lure	n/a	n/a	n/a	1
37.797	0.46666218	LEAFLET	lure	n/a	n/a	n/a	1
38.263	0.383326921	CARETAKER	lure	n/a	n/a	n/a	1
38.647	0.683323885	SIBLING	lure	n/a	n/a	n/a	1
39.33	0.551980556	TEAMMATE	lure	n/a	n/a	n/a	1
39.882	0.648004873	OUTPORT	lure	n/a	n/a	n/a	1
40.53	0.383321673	TURBULENCE	lure	n/a	n/a	n/a	1
40.913	2.016646601	JAIL	long	n/a	n/a	n/a	1
42.93	0.400038629	COMPLIMENT	lure	n/a	n/a	n/a	1
43.33	0.566607755	SECULARISM	lure	n/a	n/a	n/a	1
43.896	0.666663672	HONEYBEE	lure	n/a	n/a	n/a	1
44.563	0.666654423	ELEVATOR	lure	n/a	n/a	n/a	1
45.23	0.566660228	MONARCH	lure	n/a	n/a	n/a	1
45.796	0.649988985	QUANTITY	lure	n/a	n/a	n/a	1
46.446	0.316661882	OMELET	lure	n/a	n/a	n/a	1
46.763	0.716658437	HOSTAGE	lure	n/a	n/a	n/a	1
47.48	0.683369597	PIETY	lure	n/a	n/a	n/a	1
48.163	0.333286667	GYMNAST	lure	n/a	n/a	n/a	1
48.496	0.399991199	RELIGION	lure	n/a	n/a	n/a	1
48.896	0.650252258	ROSEBUD	lure	n/a	n/a	n/a	1
49.547	0.616397306	CARD	short	n/a	n/a	n/a	1
50.163	0.466658111	HAMSTER	lure	n/a	n/a	n/a	1
50.63	0.449997569	HOTBED	lure	n/a	n/a	n/a	1
51.08	0.616655851	SWEATSHIRT	lure	n/a	n/a	n/a	1
51.696	0.51666086	LIFE	lure	n/a	n/a	n/a	1
52.213	0.54999514	CONCEPTION	lure	n/a	n/a	n/a	1
52.763	0.666658582	EMISSION	lure	n/a	n/a	n/a	1
53.43	0.516653304	WARFARE	lure	n/a	n/a	n/a	1
53.946	0.416663466	INDUCTION	lure	n/a	n/a	n/a	1
54.363	0.716655013	COMRADE	lure	n/a	n/a	n/a	1
55.08	0.516663173	LION	lure	n/a	n/a	n/a	1
55.596	0.366660064	FUZZ	lure	n/a	n/a	n/a	1
55.963	0.366662531	HEADGEAR	lure	n/a	n/a	n/a	1
56.33	0.333331997	CAMERA	lure	n/a	n/a	n/a	1
56.663	0.599990874	BRICK	lure	n/a	n/a	n/a	1
57.263	0.683323283	KEEPSAKE	lure	n/a	n/a	n/a	1
57.946	0.616661001	COUNCIL	short	n/a	n/a	n/a	1
58.563	0.766655551	WHISKEY	lure	n/a	n/a	n/a	1
59.33	0.349989361	PRETENSION	lure	n/a	n/a	n/a	1
59.68	0.483326851	JUNCTURE	lure	n/a	n/a	n/a	1
60.163	0.316661948	EXCISE	lure	n/a	n/a	n/a	1
60.48	0.549994348	ANOREXIA	lure	n/a	n/a	n/a	1
61.03	0.766658379	FILMSTRIP	lure	n/a	n/a	n/a	1
61.796	0.766658293	EXPLORER	lure	n/a	n/a	n/a	1
62.563	0.749983811	ZODIAC	lure	n/a	n/a	n/a	1
63.313	0.499993818	HORSESHOE	lure	n/a	n/a	n/a	1
63.813	0.633328123	TALC	lure	n/a	n/a	n/a	1
64.446	0.716653444	COMMA	lure	n/a	n/a	n/a	1
65.163	0.733323876	CLAUSE	lure	n/a	n/a	n/a	1
65.896	0.683325231	THRIFT	lure	n/a	n/a	n/a	1
66.579	2.016643421	FRONTIER	long	n/a	n/a	n/a	1
68.596	0.41665505	KEEPER	lure	n/a	n/a	n/a	1
69.013	0.43333074	PIRATE	lure	n/a	n/a	n/a	1
69.446	0.366663353	KINGDOM	lure	n/a	n/a	n/a	1
69.813	0.399989096	DISSECTION	lure	n/a	n/a	n/a	1
70.213	0.649994248	OVERPRINT	lure	n/a	n/a	n/a	1
70.863	0.5667081	GULF	lure	n/a	n/a	n/a	1
71.429	0.68327918	MORALITY	lure	n/a	n/a	n/a	1
72.113	0.333328404	PLUMBER	lure	n/a	n/a	n/a	1
72.446	0.416654687	ADVENT	lure	n/a	n/a	n/a	1
72.863	0.383328865	ECLAIR	lure	n/a	n/a	n/a	1
73.246	0.749994232	ENTICEMENT	lure	n/a	n/a	n/a	1
73.996	0.666656888	PRISM	lure	n/a	n/a	n/a	1
74.663	0.616660377	ROAD	short	n/a	n/a	n/a	1
75.279	0.499989511	JUNKIE	lure	n/a	n/a	n/a	1
75.779	0.566657251	SENSOR	lure	n/a	n/a	n/a	1
76.346	0.400000312	SUBVERSION	lure	n/a	n/a	n/a	1
76.746	0.48332624	KIDDY	lure	n/a	n/a	n/a	1
77.229	0.483324431	GLEANER	lure	n/a	n/a	n/a	1
77.713	0.549992013	GOATEE	lure	n/a	n/a	n/a	1
78.263	0.699991627	EARPIECE	lure	n/a	n/a	n/a	1
78.963	0.733363194	SCRIMMAGE	lure	n/a	n/a	n/a	1
79.696	0.43328782	CELLOPHANE	lure	n/a	n/a	n/a	1
80.129	0.366701899	WEEKEND	lure	n/a	n/a	n/a	1
80.496	0.366616756	MIDNIGHT	lure	n/a	n/a	n/a	1
80.863	0.683330568	TELEPATHY	lure	n/a	n/a	n/a	1
81.546	0.716696847	SUCCESSION	lure	n/a	n/a	n/a	1
82.263	0.583279504	SARCASM	lure	n/a	n/a	n/a	1
82.846	0.616663042	MUZZLE	short	n/a	n/a	n/a	1
83.463	0.599987405	BROKERAGE	lure	n/a	n/a	n/a	1
84.063	0.604593755	PUBLISHER	lure	n/a	n/a	n/a	1
84.667	0.395392912	LUXURY	lure	n/a	n/a	n/a	1
85.063	0.699993555	DIGNITY	lure	n/a	n/a	n/a	1
85.763	0.699987878	MERIDIAN	lure	n/a	n/a	n/a	1
86.463	0.59999253	REEF	lure	n/a	n/a	n/a	1
87.063	0.433331949	NIGHTSHIRT	lure	n/a	n/a	n/a	1
87.496	0.583320643	NONE	lure	n/a	n/a	n/a	1
88.079	0.44999385	DILATION	lure	n/a	n/a	n/a	1
88.529	0.399995982	DATA	lure	n/a	n/a	n/a	1
88.929	0.699988369	SURREALISM	lure	n/a	n/a	n/a	1
89.629	0.43333478	BROTHER	lure	n/a	n/a	n/a	1
90.063	0.587560775	TURNER	lure	n/a	n/a	n/a	1
90.65	0.662418943	FOREHEAD	lure	n/a	n/a	n/a	1
91.312	1.016652416	APPLE	fruit	878	2	2	1
92.329	0.383326571	IMMORALITY	lure	n/a	n/a	n/a	1
92.712	0.616660168	INMATE	lure	n/a	n/a	n/a	1
93.329	0.466663752	PAWNSHOP	lure	n/a	n/a	n/a	1
93.796	0.516655148	COLLIE	lure	n/a	n/a	n/a	1
94.312	0.766660339	PROTOTYPE	lure	n/a	n/a	n/a	1
95.079	0.766656464	DRAWBACK	lure	n/a	n/a	n/a	1
95.846	0.700028468	CHRONICLE	lure	n/a	n/a	n/a	1
96.546	0.549990742	INSPECTION	lure	n/a	n/a	n/a	1
97.096	0.536454326	RAPPORT	lure	n/a	n/a	n/a	1
97.632	0.396826018	RAT	lure	n/a	n/a	n/a	1
98.029	0.733323807	STAIR	lure	n/a	n/a	n/a	1
98.762	0.549996377	DEVIANCY	lure	n/a	n/a	n/a	1
99.312	0.716653626	VELOCITY	lure	n/a	n/a	n/a	1
100.029	2.016642007	SPONGE	long	n/a	n/a	n/a	1
102.046	0.566655609	PESTICIDE	lure	n/a	n/a	n/a	1
102.612	0.349995744	BOWSTRING	lure	n/a	n/a	n/a	1
102.962	0.399996996	STATESMEN	lure	n/a	n/a	n/a	1
103.362	0.683319537	DEPARTURE	lure	n/a	n/a	n/a	1
104.046	0.766661332	OCTANE	lure	n/a	n/a	n/a	1
104.812	0.733360822	NUISANCE	lure	n/a	n/a	n/a	1
105.546	0.599956291	HOSIERY	lure	n/a	n/a	n/a	1
106.146	0.383324079	ANCESTRY	lure	n/a	n/a	n/a	1
106.529	0.616658231	SPOKESMAN	lure	n/a	n/a	n/a	1
107.146	0.316662838	CRAYFISH	lure	n/a	n/a	n/a	1
107.462	0.566710017	HEXAGRAM	lure	n/a	n/a	n/a	1
108.029	0.616608846	SAWDUST	short	n/a	n/a	n/a	1
108.646	0.333329621	COLT	lure	n/a	n/a	n/a	1
108.979	0.533372488	SONOGRAM	lure	n/a	n/a	n/a	1
109.512	0.633339308	CONCOCTION	lure	n/a	n/a	n/a	1
110.146	0.449931086	PAD	lure	n/a	n/a	n/a	1
110.596	0.766657964	VENGEANCE	lure	n/a	n/a	n/a	1
111.362	0.583365077	HONESTY	lure	n/a	n/a	n/a	1
111.946	0.400483425	PROCURER	lure	n/a	n/a	n/a	1
112.346	0.399467552	GAZER	lure	n/a	n/a	n/a	1
112.746	0.54998804	GASLIGHT	lure	n/a	n/a	n/a	1
113.296	0.633366885	BOUNCER	lure	n/a	n/a	n/a	1
113.929	0.616618922	AMBROSIA	lure	n/a	n/a	n/a	1
114.546	0.583321171	PROCURATOR	lure	n/a	n/a	n/a	1
115.129	0.466664602	VOLATILITY	lure	n/a	n/a	n/a	1
115.595	0.716659385	LEEWAY	lure	n/a	n/a	n/a	1
116.312	2.016636478	FOREST	long	n/a	n/a	n/a	1
118.329	0.633364571	BLOWBACK	lure	n/a	n/a	n/a	1
118.962	0.387157683	CLOSEUP	lure	n/a	n/a	n/a	1
119.349	0.596120613	REMAKE	lure	n/a	n/a	n/a	1
119.945	0.583324084	NUMEROLOGY	lure	n/a	n/a	n/a	1
120.529	0.566658583	ATTIRE	lure	n/a	n/a	n/a	1
121.095	0.599992187	PEACEMAKER	lure	n/a	n/a	n/a	1
121.695	0.521241595	OMEN	lure	n/a	n/a	n/a	1
122.217	0.445416017	DEER	lure	n/a	n/a	n/a	1
122.662	0.533327915	CARDIOGRAM	lure	n/a	n/a	n/a	1
123.195	0.500040568	PINT	lure	n/a	n/a	n/a	1
123.695	0.749939255	DISUSE	lure	n/a	n/a	n/a	1
124.445	0.533328587	CREWMAN	lure	n/a	n/a	n/a	1
124.979	1.01664972	BERRY	fruit	644	2	2	1
125.995	0.383331432	FOREFINGER	lure	n/a	n/a	n/a	1
126.379	0.533320695	JURIST	lure	n/a	n/a	n/a	1
126.912	0.48332717	ASTROLOGY	lure	n/a	n/a	n/a	1
127.395	0.466662094	TIMEPIECE	lure	n/a	n/a	n/a	1
127.862	0.799991138	SUITE	lure	n/a	n/a	n/a	1
128.662	0.399991535	DORMITORY	lure	n/a	n/a	n/a	1
129.062	0.399997958	VILLAIN	lure	n/a	n/a	n/a	1
129.462	0.549990296	NOVICE	lure	n/a	n/a	n/a	1
130.012	0.399992642	KEYSTONE	lure	n/a	n/a	n/a	1
130.412	0.633327589	POTION	lure	n/a	n/a	n/a	1
131.045	0.433328277	DENIAL	lure	n/a	n/a	n/a	1
131.479	0.383324422	KNITWEAR	lure	n/a	n/a	n/a	1
131.862	0.599993706	GOALKEEPER	lure	n/a	n/a	n/a	1
132.462	0.618880852	RECOMPENSE	lure	n/a	n/a	n/a	1
133.081	0.581104655	LORE	lure	n/a	n/a	n/a	1
133.662	1.016649536	CANTELOUPE	fruit	809	2	2	1
134.679	0.733325161	CLASSICIST	lure	n/a	n/a	n/a	1
135.412	0.719253428	GRINDER	lure	n/a	n/a	n/a	1
136.131	0.330733479	HANDGUN	lure	n/a	n/a	n/a	1
136.462	0.483375587	MATRIMONY	lure	n/a	n/a	n/a	1
136.945	0.383328935	DEJECTION	lure	n/a	n/a	n/a	1
137.329	0.599939977	ACCURACY	lure	n/a	n/a	n/a	1
137.929	0.616662172	BORROWER	lure	n/a	n/a	n/a	1
138.545	0.519292172	COLLEAGUE	lure	n/a	n/a	n/a	1
139.064	0.397420522	SPHINCTER	lure	n/a	n/a	n/a	1
139.462	0.433267206	THRUSTER	lure	n/a	n/a	n/a	1
139.895	0.766654118	DELETION	lure	n/a	n/a	n/a	1
140.662	0.649994632	ALLOCATION	lure	n/a	n/a	n/a	1
141.312	0.383327378	DENOTATION	lure	n/a	n/a	n/a	1
141.695	0.449995299	WATCHBAND	lure	n/a	n/a	n/a	1
142.145	1.016650821	ELDERBERRY	fruit	701	2	2	1
143.162	0.683328447	MART	lure	n/a	n/a	n/a	1
143.845	0.399992482	BLOWPIPE	lure	n/a	n/a	n/a	1
144.245	0.333327054	AMPLIFIER	lure	n/a	n/a	n/a	1
144.578	0.716655834	GROUNDER	lure	n/a	n/a	n/a	1
145.295	0.733325045	PIPER	lure	n/a	n/a	n/a	1
146.028	0.6166573	YEAST	lure	n/a	n/a	n/a	1
146.645	0.483328726	HOTHEAD	lure	n/a	n/a	n/a	1
147.128	0.766657785	LOT	lure	n/a	n/a	n/a	1
147.895	0.349997088	SPECULATOR	lure	n/a	n/a	n/a	1
148.245	0.366656396	MANPOWER	lure	n/a	n/a	n/a	1
148.612	0.633373963	DOGHOUSE	lure	n/a	n/a	n/a	1
149.245	0.53327901	SPACESHIP	lure	n/a	n/a	n/a	1
149.778	0.416657528	HYPERBOLA	lure	n/a	n/a	n/a	1
150.195	0.366664968	ENGINE	lure	n/a	n/a	n/a	1
150.562	1.018157091	BERRY	fruit	717	2	2	1
151.58	0.465154816	ACCEPTANCE	lure	n/a	n/a	n/a	1
152.045	0.750028942	HISTAMINE	lure	n/a	n/a	n/a	1
152.795	0.49995261	SEQUOIA	lure	n/a	n/a	n/a	1
153.295	0.71665783	BRISKET	lure	n/a	n/a	n/a	1
154.012	0.483385183	PRESSMAN	lure	n/a	n/a	n/a	1
154.495	0.716598443	COMBO	lure	n/a	n/a	n/a	1
155.212	0.416661485	LAUGHTER	lure	n/a	n/a	n/a	1
155.628	0.466658966	RIB	lure	n/a	n/a	n/a	1
156.095	0.399997898	MATRIARCH	lure	n/a	n/a	n/a	1
156.495	0.316659212	EYESIGHT	lure	n/a	n/a	n/a	1
156.812	0.54999221	BRIBERY	lure	n/a	n/a	n/a	1
157.362	0.549992582	COLLECTOR	lure	n/a	n/a	n/a	1
157.912	0.749991245	EXPOSITION	lure	n/a	n/a	n/a	1
158.662	0.366664315	VENUE	lure	n/a	n/a	n/a	1
159.028	2.016639383	ELBOW	long	n/a	n/a	n/a	1
161.045	0.549993424	HARVESTER	lure	n/a	n/a	n/a	1
161.595	0.699990751	GEn/aE	lure	n/a	n/a	n/a	1
162.295	0.666655524	COUNTRYMEN	lure	n/a	n/a	n/a	1
162.962	0.549993822	OPPOSITION	lure	n/a	n/a	n/a	1
163.512	0.433326238	SAMBA	lure	n/a	n/a	n/a	1
163.945	0.51792652	SETTER	lure	n/a	n/a	n/a	1
164.463	0.61539552	LETTERBOX	lure	n/a	n/a	n/a	1
165.078	0.616655404	CHARCOAL	lure	n/a	n/a	n/a	1
165.695	0.333374646	LAWMAN	lure	n/a	n/a	n/a	1
166.028	0.566615715	INVENTOR	lure	n/a	n/a	n/a	1
166.595	0.383326829	SCAPEGOAT	lure	n/a	n/a	n/a	1
166.978	2.016640921	DOME	long	n/a	n/a	n/a	1
168.995	0.333328314	FAVORITISM	lure	n/a	n/a	n/a	1
169.328	0.550046714	SOLEMNITY	lure	n/a	n/a	n/a	1
169.878	0.48327236	SHAW	lure	n/a	n/a	n/a	1
170.361	0.433322248	METAL	lure	n/a	n/a	n/a	1
170.795	0.616702751	PRETENDER	lure	n/a	n/a	n/a	1
171.411	0.65302873	COMPETENCE	lure	n/a	n/a	n/a	1
172.064	0.480251645	KEG	lure	n/a	n/a	n/a	1
172.545	0.383322124	CORRUPTION	lure	n/a	n/a	n/a	1
172.928	0.583378943	COHERENCY	lure	n/a	n/a	n/a	1
173.511	0.316659695	OVERHAUL	lure	n/a	n/a	n/a	1
173.828	0.749940404	FEROCITY	lure	n/a	n/a	n/a	1
174.578	0.587636477	ARCHWAY	lure	n/a	n/a	n/a	1
175.166	1.029010142	BLACKBERRY	fruit	673	2	2	1
176.195	0.666660303	SUSPECT	lure	n/a	n/a	n/a	1
176.861	0.666696105	ROSTER	lure	n/a	n/a	n/a	1
177.528	0.399951946	HEADHUNTER	lure	n/a	n/a	n/a	1
177.928	0.383330575	BIOGRAPHY	lure	n/a	n/a	n/a	1
178.311	0.716654517	PROPRIETY	lure	n/a	n/a	n/a	1
179.028	0.399994721	APPENDAGE	lure	n/a	n/a	n/a	1
179.428	0.566656613	GIVER	lure	n/a	n/a	n/a	1
179.995	0.450000462	CATACLYSM	lure	n/a	n/a	n/a	1
180.445	0.700046786	INFLUENZA	lure	n/a	n/a	n/a	1
181.145	0.566600416	BALE	lure	n/a	n/a	n/a	1
181.711	0.633326011	OAT	lure	n/a	n/a	n/a	1
182.345	0.599992452	DEBT	lure	n/a	n/a	n/a	1
182.945	0.583372519	YEAR	lure	n/a	n/a	n/a	1
183.528	2.016592513	DIRT	long	n/a	n/a	n/a	1
185.545	0.649992622	MISUSE	lure	n/a	n/a	n/a	1
186.195	0.666700417	REFUND	lure	n/a	n/a	n/a	1
186.861	0.649993289	WORKROOM	lure	n/a	n/a	n/a	1
187.511	0.366614797	NOONTIME	lure	n/a	n/a	n/a	1
187.878	0.383327009	COMPLEMENT	lure	n/a	n/a	n/a	1
188.261	0.66665624	MINSTREL	lure	n/a	n/a	n/a	1
188.928	0.733363189	JURY	lure	n/a	n/a	n/a	1
189.661	0.549954544	MISDEED	lure	n/a	n/a	n/a	1
190.211	0.700039766	SUBURBIA	lure	n/a	n/a	n/a	1
190.911	0.566608075	PRETENSE	lure	n/a	n/a	n/a	1
191.478	0.58496959	CANCER	lure	n/a	n/a	n/a	1
192.063	0.615012724	WALLET	short	n/a	n/a	n/a	1
192.678	0.483330769	EXTRACTOR	lure	n/a	n/a	n/a	1
193.161	0.316659677	FOOTAGE	lure	n/a	n/a	n/a	1
193.478	0.783325343	WOODSHED	lure	n/a	n/a	n/a	1
194.261	0.633328013	BAKERY	lure	n/a	n/a	n/a	1
194.894	0.683322609	MICROMETER	lure	n/a	n/a	n/a	1
195.578	0.733373354	BASKET	lure	n/a	n/a	n/a	1
196.311	0.666608381	SLIPPAGE	lure	n/a	n/a	n/a	1
196.978	0.366656984	STOVE	lure	n/a	n/a	n/a	1
197.344	0.466664	CANTEEN	lure	n/a	n/a	n/a	1
197.811	0.633325451	COAL	lure	n/a	n/a	n/a	1
198.444	0.349991139	GANGSTER	lure	n/a	n/a	n/a	1
198.794	0.566698276	STANDPOINT	lure	n/a	n/a	n/a	1
199.361	0.666620698	NEWSREADER	lure	n/a	n/a	n/a	1
200.028	0.666659393	RIFLEMAN	lure	n/a	n/a	n/a	1
200.694	2.01663838	LETTER	long	n/a	n/a	n/a	1
202.711	0.316657892	RESUMPTION	lure	n/a	n/a	n/a	1
203.028	0.735683982	CROSSWIND	lure	n/a	n/a	n/a	1
203.763	0.680983672	JELLO	lure	n/a	n/a	n/a	1
204.444	0.649972185	CRAFTSMEN	lure	n/a	n/a	n/a	1
205.094	0.383330192	GENTRY	lure	n/a	n/a	n/a	1
205.478	0.73332034	RECAP	lure	n/a	n/a	n/a	1
206.211	0.383328678	APPLICATOR	lure	n/a	n/a	n/a	1
206.594	0.699996417	BREASTBONE	lure	n/a	n/a	n/a	1
207.294	0.333325029	STEELMAKER	lure	n/a	n/a	n/a	1
207.628	0.466657701	SUn/aAY	lure	n/a	n/a	n/a	1
208.094	0.533331987	LADING	lure	n/a	n/a	n/a	1
208.628	0.74998484	DRAKE	lure	n/a	n/a	n/a	1
209.378	0.616660346	TIMBER	short	n/a	n/a	n/a	1
209.994	0.483324713	COCKROACH	lure	n/a	n/a	n/a	1
210.478	0.56666017	AIRWAY	lure	n/a	n/a	n/a	1
211.044	0.666655781	MINK	lure	n/a	n/a	n/a	1
211.711	0.66665976	SPIDER	lure	n/a	n/a	n/a	1
212.378	0.46666259	ECLIPSE	lure	n/a	n/a	n/a	1
212.844	0.454168838	VERTEX	lure	n/a	n/a	n/a	1
213.298	0.445817134	SERVER	lure	n/a	n/a	n/a	1
213.744	0.483327674	LOCALE	lure	n/a	n/a	n/a	1
214.227	0.583322159	DISASTER	lure	n/a	n/a	n/a	1
214.811	0.366661944	MODULATION	lure	n/a	n/a	n/a	1
215.177	0.499994325	ALLOTMENT	lure	n/a	n/a	n/a	1
215.677	0.366662398	GREYBEARD	lure	n/a	n/a	n/a	1
216.044	0.68356676	TEXTILE	lure	n/a	n/a	n/a	1
216.728	0.66641965	SYMPATHY	lure	n/a	n/a	n/a	1
217.394	0.499992889	SWEEPER	lure	n/a	n/a	n/a	1
217.894	0.616655943	HAMMER	short	n/a	n/a	n/a	1
218.511	0.416658803	RESONANCE	lure	n/a	n/a	n/a	1
218.927	0.466661906	HAWKER	lure	n/a	n/a	n/a	1
219.394	0.716655574	KAZOO	lure	n/a	n/a	n/a	1
220.111	0.552861987	ASSISTANT	lure	n/a	n/a	n/a	1
220.664	0.447125124	PEROXIDE	lure	n/a	n/a	n/a	1
221.111	0.616655065	ARMFUL	lure	n/a	n/a	n/a	1
221.727	0.649996341	PAPA	lure	n/a	n/a	n/a	1
222.377	0.383324362	VELVETEEN	lure	n/a	n/a	n/a	1
222.761	0.533329053	DILEMMA	lure	n/a	n/a	n/a	1
223.294	0.333332436	BOXWOOD	lure	n/a	n/a	n/a	1
223.627	0.566652226	HESITANCE	lure	n/a	n/a	n/a	1
224.194	0.599993448	MILESTONE	lure	n/a	n/a	n/a	1
224.794	0.599991088	SUBMARINE	lure	n/a	n/a	n/a	1
225.394	0.633365391	RESIN	lure	n/a	n/a	n/a	1
226.027	0.466623828	BUCKWHEAT	lure	n/a	n/a	n/a	1
226.494	0.383363772	COLESLAW	lure	n/a	n/a	n/a	1
226.877	n/a	CLARINET	lure	n/a	n/a	n/a	1
238.011	0.533327008	PROCESSION	lure	n/a	n/a	n/a	1
238.544	0.633322332	NUTRITION	lure	n/a	n/a	n/a	1
239.177	0.683323917	COMMUTER	lure	n/a	n/a	n/a	1
239.86	0.416660664	SALIVATION	lure	n/a	n/a	n/a	1
240.277	0.683551223	SHOWPLACE	lure	n/a	n/a	n/a	1
240.961	0.499766247	CODEINE	lure	n/a	n/a	n/a	1
241.46	0.633324524	TRIAL	lure	n/a	n/a	n/a	1
242.094	1.016654769	PLUM	fruit	729	2	2	1
243.11	0.383324007	FOLLOWER	lure	n/a	n/a	n/a	1
243.494	0.520177174	MONORAIL	lure	n/a	n/a	n/a	1
244.014	0.613180977	PACIFISM	lure	n/a	n/a	n/a	1
244.627	0.433292946	DROPPER	lure	n/a	n/a	n/a	1
245.06	0.483324277	DEPARTMENT	lure	n/a	n/a	n/a	1
245.544	0.649991134	TRANSIENCE	lure	n/a	n/a	n/a	1
246.194	0.616658374	PINHEAD	lure	n/a	n/a	n/a	1
246.81	0.449994752	SCALPEL	lure	n/a	n/a	n/a	1
247.26	0.633324063	PELICAN	lure	n/a	n/a	n/a	1
247.894	0.733323435	COMPOSURE	lure	n/a	n/a	n/a	1
248.627	0.499993314	CHARMER	lure	n/a	n/a	n/a	1
249.127	0.583374268	UNDERLAY	lure	n/a	n/a	n/a	1
249.71	0.583277368	DAFFODIL	lure	n/a	n/a	n/a	1
250.294	0.616657635	ROAD	short	n/a	n/a	n/a	1
250.91	0.683324511	SECT	lure	n/a	n/a	n/a	1
251.594	0.466662661	STORAGE	lure	n/a	n/a	n/a	1
252.06	0.333326965	BANNER	lure	n/a	n/a	n/a	1
252.394	0.400065101	RIFF	lure	n/a	n/a	n/a	1
252.794	0.533321003	BASSET	lure	n/a	n/a	n/a	1
253.327	0.533263316	DOORWAY	lure	n/a	n/a	n/a	1
253.86	0.48332317	RETRIEVAL	lure	n/a	n/a	n/a	1
254.344	0.466661443	MUSCLEMAN	lure	n/a	n/a	n/a	1
254.81	0.516711732	SPLOTCH	lure	n/a	n/a	n/a	1
255.327	0.483270934	CHEETAH	lure	n/a	n/a	n/a	1
255.81	0.700046288	GOALPOST	lure	n/a	n/a	n/a	1
256.51	0.686867072	VALENCE	lure	n/a	n/a	n/a	1
257.197	0.57973037	LAWSUIT	lure	n/a	n/a	n/a	1
257.777	0.600032599	SAINTHOOD	lure	n/a	n/a	n/a	1
258.377	1.016613462	APPLE	fruit	677	2	2	1
259.394	0.416661257	VULGARITY	lure	n/a	n/a	n/a	1
259.81	0.699986325	HEEL	lure	n/a	n/a	n/a	1
260.51	0.349997378	NEUROLOGY	lure	n/a	n/a	n/a	1
260.86	0.549992215	TALCUM	lure	n/a	n/a	n/a	1
261.41	0.733324342	RESALE	lure	n/a	n/a	n/a	1
262.144	0.64999081	GUESTHOUSE	lure	n/a	n/a	n/a	1
262.794	0.499993673	LIAISON	lure	n/a	n/a	n/a	1
263.294	0.316662775	AMBULANCE	lure	n/a	n/a	n/a	1
263.61	0.449994107	SUPERNOVA	lure	n/a	n/a	n/a	1
264.06	0.51666141	UTOPIA	lure	n/a	n/a	n/a	1
264.577	0.38332565	DRESSER	lure	n/a	n/a	n/a	1
264.96	0.599992756	VOLUME	lure	n/a	n/a	n/a	1
265.56	0.599989022	OXIDE	lure	n/a	n/a	n/a	1
266.16	0.583324964	PASTEBOARD	lure	n/a	n/a	n/a	1
266.743	0.616658016	ROOT	short	n/a	n/a	n/a	1
267.36	0.31666666	LIVELIHOOD	lure	n/a	n/a	n/a	1
267.677	0.499992565	QUANTUM	lure	n/a	n/a	n/a	1
268.177	0.599991891	BOOZER	lure	n/a	n/a	n/a	1
268.777	0.333327614	CHIEFTAIN	lure	n/a	n/a	n/a	1
269.11	0.516662595	SNAPBACK	lure	n/a	n/a	n/a	1
269.627	0.753359261	BATON	lure	n/a	n/a	n/a	1
270.38	0.379957295	SEVERANCE	lure	n/a	n/a	n/a	1
270.76	0.783322618	INCISOR	lure	n/a	n/a	n/a	1
271.543	0.583325027	BLADE	lure	n/a	n/a	n/a	1
272.127	0.633324776	BROADSHEET	lure	n/a	n/a	n/a	1
272.76	0.416657978	COMPLEXITY	lure	n/a	n/a	n/a	1
273.177	0.749994085	MOSQUE	lure	n/a	n/a	n/a	1
273.927	0.566658401	SPARROW	lure	n/a	n/a	n/a	1
274.493	0.399994608	BREADCRUMB	lure	n/a	n/a	n/a	1
274.893	2.01663942	DITCH	long	n/a	n/a	n/a	1
276.91	0.333328211	UTENSIL	lure	n/a	n/a	n/a	1
277.243	0.733324063	GUM	lure	n/a	n/a	n/a	1
277.977	0.783324065	STRETCHER	lure	n/a	n/a	n/a	1
278.76	0.483331115	ILLITERACY	lure	n/a	n/a	n/a	1
279.243	0.449988761	STUPIDITY	lure	n/a	n/a	n/a	1
279.693	0.383324556	GOATSKIN	lure	n/a	n/a	n/a	1
280.077	0.399998191	SIMPLICITY	lure	n/a	n/a	n/a	1
280.477	0.633325139	EQUATOR	lure	n/a	n/a	n/a	1
281.11	0.683323177	CULT	lure	n/a	n/a	n/a	1
281.793	0.74998768	SCREENPLAY	lure	n/a	n/a	n/a	1
282.543	0.516658085	HUMPBACK	lure	n/a	n/a	n/a	1
283.06	0.616663183	MUZZLE	short	n/a	n/a	n/a	1
283.677	0.783370383	HEALTH	lure	n/a	n/a	n/a	1
284.46	0.383277367	TITAN	lure	n/a	n/a	n/a	1
284.843	0.416662345	SPECIMEN	lure	n/a	n/a	n/a	1
285.26	0.483324768	PARKLAND	lure	n/a	n/a	n/a	1
285.743	0.38337977	FRAMEWORK	lure	n/a	n/a	n/a	1
286.127	0.71665143	RESTRAINT	lure	n/a	n/a	n/a	1
286.843	0.616615971	NARCISSIST	lure	n/a	n/a	n/a	1
287.46	0.38332429	TECHNICIAN	lure	n/a	n/a	n/a	1
287.843	0.749993226	FREELOADER	lure	n/a	n/a	n/a	1
288.593	0.516660582	APPENDIX	lure	n/a	n/a	n/a	1
289.11	0.383328746	NORM	lure	n/a	n/a	n/a	1
289.493	0.316657574	TWEEZER	lure	n/a	n/a	n/a	1
289.81	0.516660015	CASTAWAY	lure	n/a	n/a	n/a	1
290.326	0.549999776	TURNTABLE	lure	n/a	n/a	n/a	1
290.876	0.433376193	EPICENTER	lure	n/a	n/a	n/a	1
291.31	2.016585454	LETTER	long	n/a	n/a	n/a	1
293.326	0.416662075	QUANDARY	lure	n/a	n/a	n/a	1
293.743	0.549989734	SLEW	lure	n/a	n/a	n/a	1
294.293	0.36666722	BEEFCAKE	lure	n/a	n/a	n/a	1
294.66	0.583378443	LITERALISM	lure	n/a	n/a	n/a	1
295.243	0.733323703	BATHROBE	lure	n/a	n/a	n/a	1
295.976	0.368517591	LIVER	lure	n/a	n/a	n/a	1
296.345	0.598076973	SUBSOIL	lure	n/a	n/a	n/a	1
296.943	0.34999484	HARMONICA	lure	n/a	n/a	n/a	1
297.293	0.366665746	CATHEDRAL	lure	n/a	n/a	n/a	1
297.66	0.749989945	DERBY	lure	n/a	n/a	n/a	1
298.41	0.499994438	SENDER	lure	n/a	n/a	n/a	1
298.91	0.585615453	VIPER	lure	n/a	n/a	n/a	1
299.495	0.614369429	CARD	short	n/a	n/a	n/a	1
300.11	0.583323563	CUPCAKE	lure	n/a	n/a	n/a	1
300.693	0.416659966	SEPARATISM	lure	n/a	n/a	n/a	1
301.11	0.583327912	CHUNK	lure	n/a	n/a	n/a	1
301.693	0.383328537	COWBIRD	lure	n/a	n/a	n/a	1
302.076	0.516658725	CALIPER	lure	n/a	n/a	n/a	1
302.593	0.418459628	GUMSHOE	lure	n/a	n/a	n/a	1
303.011	0.331528779	PRINCE	lure	n/a	n/a	n/a	1
303.343	0.483326834	CONFORMITY	lure	n/a	n/a	n/a	1
303.826	0.483324392	MISMATCH	lure	n/a	n/a	n/a	1
304.31	0.349999511	SIDEWALK	lure	n/a	n/a	n/a	1
304.66	0.716657693	SCAFFOLD	lure	n/a	n/a	n/a	1
305.376	0.716655044	MARMALADE	lure	n/a	n/a	n/a	1
306.093	0.433327484	ASYMMETRY	lure	n/a	n/a	n/a	1
306.526	0.699989759	OUTBREAK	lure	n/a	n/a	n/a	1
307.226	0.749992389	PROPANE	lure	n/a	n/a	n/a	1
307.976	2.016634167	CURB	long	n/a	n/a	n/a	1
309.993	0.316667685	FROG	lure	n/a	n/a	n/a	1
310.31	0.399993071	WAIST	lure	n/a	n/a	n/a	1
310.71	0.699992202	CLASSICISM	lure	n/a	n/a	n/a	1
311.41	0.433326752	SORCERY	lure	n/a	n/a	n/a	1
311.843	0.76665666	CONVICTION	lure	n/a	n/a	n/a	1
312.61	0.653812682	FROGMAN	lure	n/a	n/a	n/a	1
313.263	0.712835876	CAMERAMAN	lure	n/a	n/a	n/a	1
313.976	0.616657921	WRISTBAND	lure	n/a	n/a	n/a	1
314.593	0.749989218	SHAWL	lure	n/a	n/a	n/a	1
315.343	0.349996506	VENTRICLE	lure	n/a	n/a	n/a	1
315.693	2.016637942	DIRT	long	n/a	n/a	n/a	1
317.709	0.649991504	REDHEAD	lure	n/a	n/a	n/a	1
318.359	0.499991741	COMPASSION	lure	n/a	n/a	n/a	1
318.859	0.633327858	RIVERBANK	lure	n/a	n/a	n/a	1
319.493	0.333375744	ZONE	lure	n/a	n/a	n/a	1
319.826	0.349947827	GALLEY	lure	n/a	n/a	n/a	1
320.176	0.416659737	NUTRIENT	lure	n/a	n/a	n/a	1
320.593	0.316658878	BLOWER	lure	n/a	n/a	n/a	1
320.909	0.516663304	SNIFFER	lure	n/a	n/a	n/a	1
321.426	0.333328095	TEMPLE	lure	n/a	n/a	n/a	1
321.759	0.649991491	TOUCHSTONE	lure	n/a	n/a	n/a	1
322.409	0.516658638	XENOPHOBIA	lure	n/a	n/a	n/a	1
322.926	0.533324005	FLEA	lure	n/a	n/a	n/a	1
323.459	0.716661546	SLEET	lure	n/a	n/a	n/a	1
324.176	2.016638363	FOREST	long	n/a	n/a	n/a	1
326.193	0.604046881	HENCHMAN	lure	n/a	n/a	n/a	1
326.797	0.345940902	HANDSHAKE	lure	n/a	n/a	n/a	1
327.143	0.316657649	SATELLITE	lure	n/a	n/a	n/a	1
327.459	0.333332684	FRIAR	lure	n/a	n/a	n/a	1
327.793	0.416660412	SCARCITY	lure	n/a	n/a	n/a	1
328.209	0.69998981	NOOSE	lure	n/a	n/a	n/a	1
328.909	0.649994793	CHANTER	lure	n/a	n/a	n/a	1
329.559	0.499993819	SANDBANK	lure	n/a	n/a	n/a	1
330.059	0.466659353	THEATRE	lure	n/a	n/a	n/a	1
330.526	0.699985054	RETENTION	lure	n/a	n/a	n/a	1
331.226	0.399999196	SERGEANT	lure	n/a	n/a	n/a	1
331.626	0.483326085	DOGGY	lure	n/a	n/a	n/a	1
332.109	0.449994315	WHIRLWIND	lure	n/a	n/a	n/a	1
332.559	0.616658157	TIMBER	short	n/a	n/a	n/a	1
333.176	0.566705112	VISTA	lure	n/a	n/a	n/a	1
333.743	0.699944368	BAZAAR	lure	n/a	n/a	n/a	1
334.443	0.483326317	TEMPTER	lure	n/a	n/a	n/a	1
334.926	0.56665979	INTRO	lure	n/a	n/a	n/a	1
335.493	0.316662348	CURBSIDE	lure	n/a	n/a	n/a	1
335.809	0.433328201	CONVENT	lure	n/a	n/a	n/a	1
336.243	0.499992322	NUMERAL	lure	n/a	n/a	n/a	1
336.743	0.683324538	PULSAR	lure	n/a	n/a	n/a	1
337.426	0.383329651	NOSTRIL	lure	n/a	n/a	n/a	1
337.809	0.566657325	SPROCKET	lure	n/a	n/a	n/a	1
338.376	0.716659992	GUY	lure	n/a	n/a	n/a	1
339.092	0.633322061	SUBSTANCE	lure	n/a	n/a	n/a	1
339.726	0.749990735	HICK	lure	n/a	n/a	n/a	1
340.476	0.749986277	FIN	lure	n/a	n/a	n/a	1
341.226	2.01664264	ELBOW	long	n/a	n/a	n/a	1
343.242	0.349994641	AURA	lure	n/a	n/a	n/a	1
343.592	0.383327864	WATCHMEN	lure	n/a	n/a	n/a	1
343.976	0.383386319	AWNING	lure	n/a	n/a	n/a	1
344.359	0.516602613	STIRRUP	lure	n/a	n/a	n/a	1
344.876	0.499992156	BOOKWORM	lure	n/a	n/a	n/a	1
345.376	0.600029434	OXEN	lure	n/a	n/a	n/a	1
345.976	0.616625845	PARLOR	lure	n/a	n/a	n/a	1
346.592	0.666654884	DELIRIUM	lure	n/a	n/a	n/a	1
347.259	0.733317954	GAVEL	lure	n/a	n/a	n/a	1
347.992	0.383329876	LETTERMAN	lure	n/a	n/a	n/a	1
348.376	0.583391812	WINTERTIME	lure	n/a	n/a	n/a	1
348.959	0.783312485	SHARPENER	lure	n/a	n/a	n/a	1
349.742	2.016585335	SPONGE	long	n/a	n/a	n/a	1
351.759	0.599991263	HOMEMAKER	lure	n/a	n/a	n/a	1
352.359	0.483329432	SAC	lure	n/a	n/a	n/a	1
352.842	0.533324525	FIREDOG	lure	n/a	n/a	n/a	1
353.376	0.64999105	SKYDIVER	lure	n/a	n/a	n/a	1
354.026	0.616658412	EARTHLING	lure	n/a	n/a	n/a	1
354.642	0.449992967	CHAPTER	lure	n/a	n/a	n/a	1
355.092	0.433325961	PROPERTY	lure	n/a	n/a	n/a	1
355.526	0.733321474	DIVERSITY	lure	n/a	n/a	n/a	1
356.259	0.516663282	BUTTERCUP	lure	n/a	n/a	n/a	1
356.776	0.649991759	PRAGMATIST	lure	n/a	n/a	n/a	1
357.426	0.370965913	CHALLENGER	lure	n/a	n/a	n/a	1
357.797	0.612355198	HAMMER	short	n/a	n/a	n/a	1
358.409	0.516721248	CRUCIFIX	lure	n/a	n/a	n/a	1
358.926	0.449933046	IMPEDIMENT	lure	n/a	n/a	n/a	1
359.376	0.699990942	PROPELLER	lure	n/a	n/a	n/a	1
360.076	0.716651753	TENET	lure	n/a	n/a	n/a	1
360.792	0.349999112	GIMMICK	lure	n/a	n/a	n/a	1
361.142	0.516659831	BLOWOUT	lure	n/a	n/a	n/a	1
361.659	0.76665514	ANONYMITY	lure	n/a	n/a	n/a	1
362.426	0.549993359	ZEAL	lure	n/a	n/a	n/a	1
362.975	0.483379738	THRILLER	lure	n/a	n/a	n/a	1
363.459	0.766605963	BULLETIN	lure	n/a	n/a	n/a	1
364.225	0.483323595	RECESSION	lure	n/a	n/a	n/a	1
364.709	0.666661732	COMMITTAL	lure	n/a	n/a	n/a	1
365.375	0.583321087	LANDMARK	lure	n/a	n/a	n/a	1
365.959	2.016642792	JAIL	long	n/a	n/a	n/a	1
367.975	0.366658342	RAFT	lure	n/a	n/a	n/a	1
368.342	0.683327278	RETRIAL	lure	n/a	n/a	n/a	1
369.025	0.733364961	FOUNDER	lure	n/a	n/a	n/a	1
369.759	0.599944766	MOTIVE	lure	n/a	n/a	n/a	1
370.359	0.649994541	MONK	lure	n/a	n/a	n/a	1
371.009	0.383327428	CONTENDER	lure	n/a	n/a	n/a	1
371.392	0.466661019	OUNCE	lure	n/a	n/a	n/a	1
371.859	0.349994754	LONGBOAT	lure	n/a	n/a	n/a	1
372.209	0.583326113	BEARD	lure	n/a	n/a	n/a	1
372.792	0.350055952	KNAPSACK	lure	n/a	n/a	n/a	1
373.142	0.516595389	REFLECTOR	lure	n/a	n/a	n/a	1
373.659	0.683582197	SCAVENGER	lure	n/a	n/a	n/a	1
374.342	0.649736863	SAWDUST	short	n/a	n/a	n/a	1
374.992	0.65003094	VINEYARD	lure	n/a	n/a	n/a	1
375.642	0.333289155	CONSULATE	lure	n/a	n/a	n/a	1
375.975	0.433379096	FLIGHT	lure	n/a	n/a	n/a	1
376.409	0.466609989	BARKER	lure	n/a	n/a	n/a	1
376.875	0.316737507	ESPRESSO	lure	n/a	n/a	n/a	1
377.192	0.553332402	LATRINE	lure	n/a	n/a	n/a	1
377.745	0.46324352	IDOL	lure	n/a	n/a	n/a	1
378.209	0.699992132	BOPPER	lure	n/a	n/a	n/a	1
378.909	0.433327684	GROWTH	lure	n/a	n/a	n/a	1
379.342	0.383326531	SQUALL	lure	n/a	n/a	n/a	1
379.725	0.533378104	SWITCHBACK	lure	n/a	n/a	n/a	1
380.259	0.733273674	ALLIANCE	lure	n/a	n/a	n/a	1
380.992	0.316712176	CAGE	lure	n/a	n/a	n/a	1
381.309	0.749987935	PLURALITY	lure	n/a	n/a	n/a	1
382.059	0.399941348	GRANDSTAND	lure	n/a	n/a	n/a	1
382.459	0.616662115	WALLET	short	n/a	n/a	n/a	1
383.075	0.333330487	FINGERNAIL	lure	n/a	n/a	n/a	1
383.409	0.633320403	BUTCHERY	lure	n/a	n/a	n/a	1
384.042	0.566756361	INCURSION	lure	n/a	n/a	n/a	1
384.609	0.54989769	FREEWAY	lure	n/a	n/a	n/a	1
385.159	0.533325955	WARRANTEE	lure	n/a	n/a	n/a	1
385.692	0.716657144	HIVE	lure	n/a	n/a	n/a	1
386.409	0.333328765	MOMMA	lure	n/a	n/a	n/a	1
386.742	0.483326954	OUTCRY	lure	n/a	n/a	n/a	1
387.225	0.650051697	EYEWASH	lure	n/a	n/a	n/a	1
387.875	0.516599502	EXUBERANCE	lure	n/a	n/a	n/a	1
388.392	0.766655973	VIEWER	lure	n/a	n/a	n/a	1
389.158	0.549991431	SKYLIGHT	lure	n/a	n/a	n/a	1
389.708	0.3667105	ROADSIDE	lure	n/a	n/a	n/a	1
390.075	0.616659119	SURVEYOR	lure	n/a	n/a	n/a	1
390.692	1.01660618	CANTELOUPE	fruit	n/a	n/a	2	0
391.708	0.683323253	BETRAYAL	lure	n/a	n/a	n/a	1
392.392	0.649991258	RACCOON	lure	n/a	n/a	n/a	1
393.042	0.716656332	MIDGET	lure	n/a	n/a	n/a	1
393.758	0.649991868	TABLEWARE	lure	n/a	n/a	n/a	1
394.408	0.616661104	FOREMAN	lure	n/a	n/a	n/a	1
395.025	0.38332462	BOAT	lure	n/a	n/a	n/a	1
395.408	0.733406873	DISSENSION	lure	n/a	n/a	n/a	1
396.142	0.599908172	ARTIFACT	lure	n/a	n/a	n/a	1
396.742	0.633322099	RESCRIPT	lure	n/a	n/a	n/a	1
397.375	0.666661438	TUNAFISH	lure	n/a	n/a	n/a	1
398.042	0.699989842	FOREBODING	lure	n/a	n/a	n/a	1
398.742	0.633325652	OVERHANG	lure	n/a	n/a	n/a	1
399.375	1.016652624	CRANBERRY	fruit	831	2	2	1
400.392	0.533375955	INDENTURE	lure	n/a	n/a	n/a	1
400.925	0.503874042	TEACHER	lure	n/a	n/a	n/a	1
401.429	0.529395087	BILLBOARD	lure	n/a	n/a	n/a	1
401.958	0.68332386	LUNACY	lure	n/a	n/a	n/a	1
402.642	0.733323803	WICK	lure	n/a	n/a	n/a	1
403.375	0.69999045	STRATEGIST	lure	n/a	n/a	n/a	1
404.075	0.483326155	TECHNIQUE	lure	n/a	n/a	n/a	1
404.558	0.633378035	MEALTIME	lure	n/a	n/a	n/a	1
405.192	0.52018226	SCREE	lure	n/a	n/a	n/a	1
405.712	0.763081218	CONTORTION	lure	n/a	n/a	n/a	1
406.475	0.733320437	MULTITUDE	lure	n/a	n/a	n/a	1
407.208	0.64999588	THROTTLE	lure	n/a	n/a	n/a	1
407.858	2.016638505	DOME	long	n/a	n/a	n/a	1
409.875	0.449995123	BABYHOOD	lure	n/a	n/a	n/a	1
410.325	0.566660308	LABORATORY	lure	n/a	n/a	n/a	1
410.892	0.416658392	PLUNGER	lure	n/a	n/a	n/a	1
411.308	0.750077013	FRESHMAN	lure	n/a	n/a	n/a	1
412.058	0.43328891	REVERSAL	lure	n/a	n/a	n/a	1
412.492	0.366614092	CORNBREAD	lure	n/a	n/a	n/a	1
412.858	0.549992381	GOOGLY	lure	n/a	n/a	n/a	1
413.408	0.666657125	DYNAMITE	lure	n/a	n/a	n/a	1
414.075	0.333329802	HUNCHBACK	lure	n/a	n/a	n/a	1
414.408	0.716657415	SYMPHONY	lure	n/a	n/a	n/a	1
415.125	0.499993064	LIBERALISM	lure	n/a	n/a	n/a	1
415.625	0.566657558	ADAPTER	lure	n/a	n/a	n/a	1
416.191	1.05003638	APPLE	fruit	623	2	2	1
417.241	0.533277469	PSYCHIATRY	lure	n/a	n/a	n/a	1
417.775	0.349993326	FLOODLIGHT	lure	n/a	n/a	n/a	1
418.125	0.333425494	BROTHEL	lure	n/a	n/a	n/a	1
418.458	0.366565515	RUBBER	lure	n/a	n/a	n/a	1
418.825	0.550040961	ENGRAVER	lure	n/a	n/a	n/a	1
419.375	0.418994423	BIRTHRATE	lure	n/a	n/a	n/a	1
419.794	0.31428068	PEANUT	lure	n/a	n/a	n/a	1
420.108	0.399994845	POMP	lure	n/a	n/a	n/a	1
420.508	0.733325853	EARRING	lure	n/a	n/a	n/a	1
421.241	0.649987893	SPINDLE	lure	n/a	n/a	n/a	1
421.891	0.483324252	FOGHORN	lure	n/a	n/a	n/a	1
422.375	0.420423292	RHYTHM	lure	n/a	n/a	n/a	1
422.795	0.696231076	UNDERLING	lure	n/a	n/a	n/a	1
423.491	0.716656834	BENCH	lure	n/a	n/a	n/a	1
424.208	0.49999538	MINISTRY	lure	n/a	n/a	n/a	1
424.708	2.016639037	FRONTIER	long	n/a	n/a	n/a	1
426.725	0.516658908	HEATWAVE	lure	n/a	n/a	n/a	1
427.241	0.716716192	GALAXY	lure	n/a	n/a	n/a	1
427.958	0.549933423	RARITY	lure	n/a	n/a	n/a	1
428.508	0.483326105	RUNOFF	lure	n/a	n/a	n/a	1
428.991	0.699993676	SHRIMP	lure	n/a	n/a	n/a	1
429.691	0.466714914	SAMPLER	lure	n/a	n/a	n/a	1
430.158	0.383327954	HANDICRAFT	lure	n/a	n/a	n/a	1
430.541	0.733268825	VAMPIRE	lure	n/a	n/a	n/a	1
431.275	0.633324785	JUDICIARY	lure	n/a	n/a	n/a	1
431.908	0.499994443	MODERATOR	lure	n/a	n/a	n/a	1
432.408	0.449993586	OUTRAGE	lure	n/a	n/a	n/a	1
432.858	0.616657805	COUNCIL	short	n/a	n/a	n/a	1
433.475	0.633323445	JUNGLE	lure	n/a	n/a	n/a	1
434.108	0.399992823	MOUSE	lure	n/a	n/a	n/a	1
434.508	0.683361293	VAMP	lure	n/a	n/a	n/a	1
435.191	0.619256266	GOAL	lure	n/a	n/a	n/a	1
435.81	0.514023793	VENERATION	lure	n/a	n/a	n/a	1
436.325	0.533328482	ROVER	lure	n/a	n/a	n/a	1
436.858	0.383324779	MONOXIDE	lure	n/a	n/a	n/a	1
437.241	0.73337429	RAY	lure	n/a	n/a	n/a	1
437.975	0.583275357	TRANSCRIPT	lure	n/a	n/a	n/a	1
438.558	0.7380247	QUACKERY	lure	n/a	n/a	n/a	1
439.296	0.345292168	CHUMP	lure	n/a	n/a	n/a	1
439.641	0.416664491	BUREAU	lure	n/a	n/a	n/a	1
440.058	0.666654066	BONANZA	lure	n/a	n/a	n/a	1
440.724	0.516665987	MODESTY	lure	n/a	n/a	n/a	1
441.241	0.616658525	COLUMN	short	n/a	n/a	n/a	1
441.858	0.699985064	CAMPFIRE	lure	n/a	n/a	n/a	1
442.558	0.366661544	WORKBENCH	lure	n/a	n/a	n/a	1
442.924	0.683323118	SIFTER	lure	n/a	n/a	n/a	1
443.608	0.433327998	DIRECTIVE	lure	n/a	n/a	n/a	1
444.041	0.516665112	FOREGROUND	lure	n/a	n/a	n/a	1
444.558	0.549990741	TRAY	lure	n/a	n/a	n/a	1
445.108	0.383645511	SUPEREGO	lure	n/a	n/a	n/a	1
445.491	0.349680501	LINGO	lure	n/a	n/a	n/a	1
445.841	0.499987093	HARLOT	lure	n/a	n/a	n/a	1
446.341	0.716656694	POSTCARD	lure	n/a	n/a	n/a	1
447.058	0.399997724	WASP	lure	n/a	n/a	n/a	1
447.458	0.466657785	LIBERATION	lure	n/a	n/a	n/a	1
447.924	0.699997097	GUSHER	lure	n/a	n/a	n/a	1
448.624	0.416654203	DIPLOMA	lure	n/a	n/a	n/a	1
449.041	0.499999358	FOOTPAD	lure	n/a	n/a	n/a	1
449.541	1.016646604	BERRY	fruit	617	2	2	1
450.558	0.416664479	MUSKET	lure	n/a	n/a	n/a	1
450.974	0.449996135	NONFICTION	lure	n/a	n/a	n/a	1
451.424	0.401890149	DETONATOR	lure	n/a	n/a	n/a	1
451.826	0.648096607	ELITISM	lure	n/a	n/a	n/a	1
452.474	0.649984679	TUMBLEWEED	lure	n/a	n/a	n/a	1
453.124	0.433330978	MANATEE	lure	n/a	n/a	n/a	1
453.558	0.316659193	SALAMANDER	lure	n/a	n/a	n/a	1
453.874	0.633326773	HASHISH	lure	n/a	n/a	n/a	1
454.508	0.699991473	SUNSET	lure	n/a	n/a	n/a	1
455.208	0.399996359	HUMIDITY	lure	n/a	n/a	n/a	1
455.608	0.449990293	WORKSHOP	lure	n/a	n/a	n/a	1
456.058	0.483325962	OVERTIME	lure	n/a	n/a	n/a	1
456.541	0.566658824	WAXWORK	lure	n/a	n/a	n/a	1
457.108	0.68332417	WAITER	lure	n/a	n/a	n/a	1
457.791	0.683331185	DEFIANCE	lure	n/a	n/a	n/a	1
458.474	0.750028044	CULPRIT	lure	n/a	n/a	n/a	1
459.224	0.533283174	MANE	lure	n/a	n/a	n/a	1
459.758	0.533373229	DUEL	lure	n/a	n/a	n/a	1
460.291	0.683274769	SHRINE	lure	n/a	n/a	n/a	1
460.974	0.416665583	BLOODHOUND	lure	n/a	n/a	n/a	1
461.391	0.47017187	FUSION	lure	n/a	n/a	n/a	1
461.861	0.413152308	PEACETIME	lure	n/a	n/a	n/a	1
462.274	0.34998849	TRUCKER	lure	n/a	n/a	n/a	1
462.624	0.649997252	STORYLINE	lure	n/a	n/a	n/a	1
463.274	0.349995335	TULIP	lure	n/a	n/a	n/a	1
463.624	0.483320316	ETHNOLOGY	lure	n/a	n/a	n/a	1
464.107	0.333329458	LOCKUP	lure	n/a	n/a	n/a	1
464.441	n/a	NIGHTCLUB	lure	n/a	n/a	n/a	1