onset	duration	stim	cond	RT	resp	cresp	acc
4.051	0.349994469	SAVANNAH	lure	n/a	n/a	n/a	1
4.401	0.316668268	CALIBER	lure	n/a	n/a	n/a	1
4.718	0.466657914	JOVIALITY	lure	n/a	n/a	n/a	1
5.184	0.599992844	CANYON	lure	n/a	n/a	n/a	1
5.784	0.616656398	COMEDY	lure	n/a	n/a	n/a	1
6.401	0.600970755	DISBARMENT	lure	n/a	n/a	n/a	1
7.002	0.465683359	LEEK	lure	n/a	n/a	n/a	1
7.468	0.483325178	MASCOT	lure	n/a	n/a	n/a	1
7.951	2.016640506	DOME	long	n/a	n/a	n/a	1
9.968	0.500041372	WORKER	lure	n/a	n/a	n/a	1
10.468	0.566611481	VANGUARD	lure	n/a	n/a	n/a	1
11.034	0.383327154	COMPLEXION	lure	n/a	n/a	n/a	1
11.418	0.483323644	BRAKEMAN	lure	n/a	n/a	n/a	1
11.901	0.549991883	FLOOZY	lure	n/a	n/a	n/a	1
12.451	0.533377738	ENCORE	lure	n/a	n/a	n/a	1
12.984	0.466614922	OLIGARCHY	lure	n/a	n/a	n/a	1
13.451	0.466658335	VIOLATION	lure	n/a	n/a	n/a	1
13.918	0.616657107	TECHNOLOGY	lure	n/a	n/a	n/a	1
14.534	0.44999509	ORATOR	lure	n/a	n/a	n/a	1
14.984	0.616657648	BACKDROP	lure	n/a	n/a	n/a	1
15.601	0.717110133	SHIPYARD	lure	n/a	n/a	n/a	1
16.318	2.016188807	JAIL	long	n/a	n/a	n/a	1
18.334	0.749987116	LISTENER	lure	n/a	n/a	n/a	1
19.084	0.74998782	VERDICT	lure	n/a	n/a	n/a	1
19.834	0.486741411	MENTOR	lure	n/a	n/a	n/a	1
20.321	0.71324479	FIGUREHEAD	lure	n/a	n/a	n/a	1
21.034	0.716656438	PEA	lure	604	2	n/a	0
21.751	0.483326731	COUP	lure	n/a	n/a	n/a	1
22.234	0.333327541	DUNGEON	lure	n/a	n/a	n/a	1
22.568	0.383332503	BURGLAR	lure	n/a	n/a	n/a	1
22.951	0.749988541	FALLOFF	lure	n/a	n/a	n/a	1
23.701	0.316661003	TONGUE	lure	n/a	n/a	n/a	1
24.018	0.549992464	MAKEUP	lure	n/a	n/a	n/a	1
24.568	1.01665216	PLUM	fruit	655	2	2	1
25.584	0.399994936	RATTLER	lure	n/a	n/a	n/a	1
25.984	0.683326438	ANTHEM	lure	n/a	n/a	n/a	1
26.668	0.333327607	RESOLUTION	lure	n/a	n/a	n/a	1
27.001	0.416660424	AIRFORCE	lure	n/a	n/a	n/a	1
27.418	0.549994665	WOODSMAN	lure	n/a	n/a	n/a	1
27.967	0.716654559	BOSOM	lure	n/a	n/a	n/a	1
28.684	0.599990488	DONKEY	lure	n/a	n/a	n/a	1
29.284	0.766658644	EYESORE	lure	n/a	n/a	n/a	1
30.051	0.483325554	INGREDIENT	lure	n/a	n/a	n/a	1
30.534	0.583326738	INITIATION	lure	n/a	n/a	n/a	1
31.117	0.483326052	SISTERHOOD	lure	n/a	n/a	n/a	1
31.601	0.649993612	IGUANA	lure	n/a	n/a	n/a	1
32.251	0.619805141	REALITY	lure	n/a	n/a	n/a	1
32.871	0.613508753	WALLET	short	n/a	n/a	n/a	1
33.484	0.549992993	BREAKDOWN	lure	n/a	n/a	n/a	1
34.034	0.533325338	EXAM	lure	n/a	n/a	n/a	1
34.567	0.683322068	NOTEBOOK	lure	n/a	n/a	n/a	1
35.251	0.316724489	MARTYRDOM	lure	n/a	n/a	n/a	1
35.567	0.566600027	MORPHOLOGY	lure	n/a	n/a	n/a	1
36.134	0.683383571	DENTURE	lure	n/a	n/a	n/a	1
36.817	0.349936804	STEPFATHER	lure	n/a	n/a	n/a	1
37.167	0.366659821	JUROR	lure	n/a	n/a	n/a	1
37.534	0.466718446	MORPHINE	lure	n/a	n/a	n/a	1
38.001	0.349939225	BRUISER	lure	n/a	n/a	n/a	1
38.351	0.6333795	CLIFF	lure	n/a	n/a	n/a	1
38.984	0.703624012	OFFENDER	lure	n/a	n/a	n/a	1
39.688	0.396362649	PUNISHMENT	lure	n/a	n/a	n/a	1
40.084	0.483268797	METALWORK	lure	n/a	n/a	n/a	1
40.567	0.549992503	FERRYBOAT	lure	n/a	n/a	n/a	1
41.117	0.616655939	SAWDUST	short	n/a	n/a	n/a	1
41.734	0.400057412	WHITETAIL	lure	n/a	n/a	n/a	1
42.134	0.749933148	HOOCH	lure	n/a	n/a	n/a	1
42.884	0.666649617	DUSK	lure	n/a	n/a	n/a	1
43.551	0.649996935	RANCHER	lure	n/a	n/a	n/a	1
44.201	0.366660082	ERASER	lure	n/a	n/a	n/a	1
44.567	0.683384335	STRAW	lure	n/a	n/a	n/a	1
45.251	0.749931134	MOTORBOAT	lure	n/a	n/a	n/a	1
46.001	0.549992296	CATCHER	lure	n/a	n/a	n/a	1
46.551	0.549990747	CAVITY	lure	n/a	n/a	n/a	1
47.101	0.333329601	DISSENT	lure	n/a	n/a	n/a	1
47.434	0.383326785	PRISONER	lure	n/a	n/a	n/a	1
47.817	0.483327406	ERASURE	lure	n/a	n/a	n/a	1
48.301	0.683327127	PANDA	lure	n/a	n/a	n/a	1
48.984	0.616655793	SALINITY	lure	n/a	n/a	n/a	1
49.601	0.616659637	MUZZLE	short	n/a	n/a	n/a	1
50.217	0.499992145	FOOTPATH	lure	n/a	n/a	n/a	1
50.717	0.39999846	AFFLICTION	lure	n/a	n/a	n/a	1
51.117	0.316657732	FISHPOND	lure	n/a	n/a	n/a	1
51.434	0.61665974	EMPORIUM	lure	n/a	n/a	n/a	1
52.051	0.449995806	CUTTER	lure	n/a	n/a	n/a	1
52.5	0.383325426	RECORDER	lure	n/a	n/a	n/a	1
52.884	0.666656908	ONSLAUGHT	lure	n/a	n/a	n/a	1
53.55	0.516660035	SELF	lure	n/a	n/a	n/a	1
54.067	0.516660553	BREATHER	lure	n/a	n/a	n/a	1
54.584	0.716658204	STRAGGLER	lure	n/a	n/a	n/a	1
55.3	0.499996046	STOREROOM	lure	n/a	n/a	n/a	1
55.8	0.46665706	CLIPBOARD	lure	n/a	n/a	n/a	1
56.267	0.599988011	MANICURE	lure	n/a	n/a	n/a	1
56.867	0.716659518	WATCHTOWER	lure	n/a	n/a	n/a	1
57.584	0.49999263	KNACK	lure	n/a	n/a	n/a	1
58.084	0.616657083	HAMMER	short	n/a	n/a	n/a	1
58.7	0.333331004	REMODEL	lure	n/a	n/a	n/a	1
59.034	0.683373821	RELATION	lure	n/a	n/a	n/a	1
59.717	0.516612322	ALMANAC	lure	n/a	n/a	n/a	1
60.234	0.483324405	CHERUB	lure	n/a	n/a	n/a	1
60.717	0.700050471	PHRASEBOOK	lure	n/a	n/a	n/a	1
61.417	0.468684568	WEREWOLF	lure	n/a	n/a	n/a	1
61.886	0.681237814	BUCKSKIN	lure	n/a	n/a	n/a	1
62.567	0.349998052	EVENT	lure	n/a	n/a	n/a	1
62.917	0.516660232	INVOCATION	lure	n/a	n/a	n/a	1
63.434	0.666658148	MOLECULE	lure	n/a	n/a	n/a	1
64.1	0.666656746	HERDSMAN	lure	n/a	n/a	n/a	1
64.767	0.666658732	BEVERAGE	lure	n/a	n/a	n/a	1
65.434	0.616657407	CREWMEN	lure	n/a	n/a	n/a	1
66.05	0.683322982	PASTIME	lure	n/a	n/a	n/a	1
66.734	2.049974483	CURB	long	n/a	n/a	n/a	1
68.784	0.41665981	PERFUSION	lure	n/a	n/a	n/a	1
69.2	0.766655424	HAILSTORM	lure	n/a	n/a	n/a	1
69.967	0.533321797	ALABASTER	lure	n/a	n/a	n/a	1
70.5	0.383333012	TIEBREAKER	lure	n/a	n/a	n/a	1
70.884	0.549991706	REPENTANCE	lure	n/a	n/a	n/a	1
71.434	0.666658542	SOAPSTONE	lure	n/a	n/a	n/a	1
72.1	0.666658579	ANARCHIST	lure	n/a	n/a	n/a	1
72.767	0.349995909	ACE	lure	n/a	n/a	n/a	1
73.117	0.599989315	CABBY	lure	n/a	n/a	n/a	1
73.717	0.399996229	CARIBOU	lure	n/a	n/a	n/a	1
74.117	0.533324651	SMUDGE	lure	n/a	n/a	n/a	1
74.65	0.48332714	COWHERD	lure	n/a	n/a	n/a	1
75.134	2.01663686	FOREST	long	n/a	n/a	n/a	1
77.15	0.450058065	IRONSIDE	lure	n/a	n/a	n/a	1
77.6	0.41660002	TELECAST	lure	n/a	n/a	n/a	1
78.017	0.483322627	MUSKETEER	lure	n/a	n/a	n/a	1
78.5	0.400000105	POSTER	lure	n/a	n/a	n/a	1
78.9	0.366659854	LITHOGRAPH	lure	n/a	n/a	n/a	1
79.267	0.533325299	ANTENNAE	lure	n/a	n/a	n/a	1
79.8	0.683389503	BORDERLAND	lure	n/a	n/a	n/a	1
80.484	0.353511902	PEASANTRY	lure	n/a	n/a	n/a	1
80.837	0.446413295	VALOR	lure	n/a	n/a	n/a	1
81.283	0.549992477	THEFT	lure	n/a	n/a	n/a	1
81.833	0.383326831	BACKLASH	lure	n/a	n/a	n/a	1
82.217	0.666659634	LOBE	lure	n/a	n/a	n/a	1
82.883	0.633320534	HATBAND	lure	n/a	n/a	n/a	1
83.517	0.616658653	CARD	short	n/a	n/a	n/a	1
84.133	0.583330355	TOURISM	lure	n/a	n/a	n/a	1
84.717	0.36671805	PROMENADE	lure	n/a	n/a	n/a	1
85.083	0.383271713	SONAR	lure	n/a	n/a	n/a	1
85.467	0.349995187	BARRACK	lure	n/a	n/a	n/a	1
85.817	0.549986859	NITWIT	lure	n/a	n/a	n/a	1
86.367	0.350001597	SILVERFISH	lure	n/a	n/a	n/a	1
86.717	0.449992592	PRESENTER	lure	n/a	n/a	n/a	1
87.167	0.349990938	CAULDRON	lure	n/a	n/a	n/a	1
87.517	0.533328748	PRESERVER	lure	n/a	n/a	n/a	1
88.05	0.36666122	SHELLSHOCK	lure	n/a	n/a	n/a	1
88.417	0.499994154	CEMETERY	lure	n/a	n/a	n/a	1
88.917	0.599992163	DOCKET	lure	n/a	n/a	n/a	1
89.517	0.383328812	AUDIENCE	lure	n/a	n/a	n/a	1
89.9	0.383329508	SONGBIRD	lure	n/a	n/a	n/a	1
90.283	0.649987626	UNDERWORLD	lure	n/a	n/a	n/a	1
90.933	0.69999279	NARRATION	lure	n/a	n/a	n/a	1
91.633	0.48338555	REED	lure	n/a	n/a	n/a	1
92.117	0.616600548	ROAD	short	n/a	n/a	n/a	1
92.733	0.370320463	ANNOUNCER	lure	n/a	n/a	n/a	1
93.104	0.562998104	PEPPERONI	lure	n/a	n/a	n/a	1
93.667	0.649991075	UNITY	lure	n/a	n/a	n/a	1
94.317	0.683323873	OVATION	lure	n/a	n/a	n/a	1
95	0.733323389	GHOUL	lure	n/a	n/a	n/a	1
95.733	0.316726239	CHEMIST	lure	n/a	n/a	n/a	1
96.05	0.566598245	BACKBOARD	lure	n/a	n/a	n/a	1
96.617	0.549986806	HORIZON	lure	n/a	n/a	n/a	1
97.167	0.716656614	CONTAINER	lure	n/a	n/a	n/a	1
97.883	0.633330756	HARPER	lure	n/a	n/a	n/a	1
98.517	0.600052883	CHARACTER	lure	n/a	n/a	n/a	1
99.117	0.633264191	KARATE	lure	n/a	n/a	n/a	1
99.75	0.651579589	PHILOSOPHY	lure	n/a	n/a	n/a	1
100.401	0.631730428	ADEQUACY	lure	n/a	n/a	n/a	1
101.033	2.049978411	FRONTIER	long	n/a	n/a	n/a	1
103.083	0.683323902	EULOGY	lure	n/a	n/a	n/a	1
103.766	0.483326801	DISHWATER	lure	n/a	n/a	n/a	1
104.25	0.499990691	SUPPLEMENT	lure	n/a	n/a	n/a	1
104.75	0.549994646	ENSEMBLE	lure	n/a	n/a	n/a	1
105.3	0.716657095	CARPORT	lure	n/a	n/a	n/a	1
106.016	0.699993771	GOURMET	lure	n/a	n/a	n/a	1
106.716	0.449985239	FISHER	lure	n/a	n/a	n/a	1
107.166	0.699993573	TURNAROUND	lure	n/a	n/a	n/a	1
107.866	0.48333028	LARD	lure	n/a	n/a	n/a	1
108.35	0.416658766	Un/aEASON	lure	n/a	n/a	n/a	1
108.766	0.333326905	HOBO	lure	n/a	n/a	n/a	1
109.1	2.016642413	SPONGE	long	n/a	n/a	n/a	1
111.116	0.399993307	PROCTOR	lure	n/a	n/a	n/a	1
111.516	0.566659305	CROPPER	lure	n/a	n/a	n/a	1
112.083	0.56665424	UNBELIEVER	lure	n/a	n/a	n/a	1
112.65	0.53338877	HEADSET	lure	n/a	n/a	n/a	1
113.183	0.599979225	FREEDMAN	lure	n/a	n/a	n/a	1
113.783	0.43327911	PUTTER	lure	n/a	n/a	n/a	1
114.216	0.533331344	VARIETY	lure	n/a	n/a	n/a	1
114.75	0.733321297	PERFORMER	lure	n/a	n/a	n/a	1
115.483	0.716716425	FOOTBALL	lure	n/a	n/a	n/a	1
116.2	0.31660287	REPRESSION	lure	n/a	n/a	n/a	1
116.516	0.699992884	REBOUND	lure	n/a	n/a	n/a	1
117.216	0.433322658	MOUTHWASH	lure	n/a	n/a	n/a	1
117.65	1.016654111	PEACH	fruit	677	2	2	1
118.666	0.733324079	PARABLE	lure	n/a	n/a	n/a	1
119.4	0.449997132	INFINITIVE	lure	n/a	n/a	n/a	1
119.85	0.333324284	PUSHOVER	lure	n/a	n/a	n/a	1
120.183	0.399995527	BUTTERMILK	lure	n/a	n/a	n/a	1
120.583	0.38332941	PARADISE	lure	n/a	n/a	n/a	1
120.966	0.400055855	PITCHER	lure	n/a	n/a	n/a	1
121.366	0.733261112	SERMON	lure	n/a	n/a	n/a	1
122.1	0.733323146	GUn/aOOM	lure	n/a	n/a	n/a	1
122.833	0.685961268	INTRUSION	lure	n/a	n/a	n/a	1
123.519	0.314026479	NEURON	lure	n/a	n/a	n/a	1
123.833	0.599991284	OVERKILL	lure	n/a	n/a	n/a	1
124.433	0.433330467	PRECEDENT	lure	n/a	n/a	n/a	1
124.866	0.433324624	WALKOVER	lure	n/a	n/a	n/a	1
125.3	0.633328209	ALTERATION	lure	n/a	n/a	n/a	1
125.933	0.466660693	HORSEHAIR	lure	n/a	n/a	n/a	1
126.4	1.016648957	GOOSEBERRY	fruit	839	2	2	1
127.416	0.733325425	SPREADER	lure	n/a	n/a	n/a	1
128.149	0.38338734	PEAL	lure	n/a	n/a	n/a	1
128.533	0.399929964	MOTORCADE	lure	n/a	n/a	n/a	1
128.933	0.416667453	GROUNDHOG	lure	n/a	n/a	n/a	1
129.349	0.316660289	COWGIRL	lure	n/a	n/a	n/a	1
129.666	0.333329403	CORONET	lure	n/a	n/a	n/a	1
129.999	0.499991626	COMPRESSOR	lure	n/a	n/a	n/a	1
130.499	0.69999241	LOUDMOUTH	lure	n/a	n/a	n/a	1
131.199	0.399993066	SUBSCRIBER	lure	n/a	n/a	n/a	1
131.599	0.549994885	INKWELL	lure	n/a	n/a	n/a	1
132.149	0.483324909	HILLSIDE	lure	n/a	n/a	n/a	1
132.633	0.733381244	BYWAY	lure	n/a	n/a	n/a	1
133.366	0.449939468	BACKER	lure	n/a	n/a	n/a	1
133.816	0.36666205	PLAINTIFF	lure	n/a	n/a	n/a	1
134.183	0.416657429	HEADMAN	lure	n/a	n/a	n/a	1
134.599	0.616656635	TIMBER	short	n/a	n/a	n/a	1
135.216	0.416660062	AFFECTION	lure	n/a	n/a	n/a	1
135.633	0.366663569	WORKMEN	lure	n/a	n/a	n/a	1
135.999	0.383379902	PAIL	lure	n/a	n/a	n/a	1
136.383	0.749938426	RAVIOLI	lure	n/a	n/a	n/a	1
137.133	0.749991893	SPADE	lure	n/a	n/a	n/a	1
137.883	0.633322855	TROPHY	lure	n/a	n/a	n/a	1
138.516	0.516659515	LYMPH	lure	n/a	n/a	n/a	1
139.033	0.666658401	DISTASTE	lure	n/a	n/a	n/a	1
139.699	0.533327838	FIRESIDE	lure	n/a	n/a	n/a	1
140.233	0.549990637	TORNADO	lure	n/a	n/a	n/a	1
140.783	0.616658747	VISE	lure	n/a	n/a	n/a	1
141.399	0.383328002	MARGIN	lure	n/a	n/a	n/a	1
141.783	0.566662686	AUTISM	lure	n/a	n/a	n/a	1
142.349	0.416711349	EXPIRATION	lure	n/a	n/a	n/a	1
142.766	1.016601067	KIWI	fruit	673	2	2	1
143.783	0.333327108	INSULATION	lure	n/a	n/a	n/a	1
144.116	0.469502338	ROMP	lure	n/a	n/a	n/a	1
144.585	0.597149843	BUFFET	lure	n/a	n/a	n/a	1
145.183	0.449994018	MOTIF	lure	n/a	n/a	n/a	1
145.633	0.399993301	PITCHFORK	lure	n/a	n/a	n/a	1
146.033	0.333328645	WIDOWER	lure	n/a	n/a	n/a	1
146.366	0.633327088	FINESSE	lure	n/a	n/a	n/a	1
146.999	0.383328684	FOOTBOARD	lure	n/a	n/a	n/a	1
147.383	0.733324123	GESTURE	lure	n/a	n/a	n/a	1
148.116	0.383327846	AUNT	lure	n/a	n/a	n/a	1
148.499	0.466659145	CORPORAL	lure	n/a	n/a	n/a	1
148.966	0.383323302	CHARISMA	lure	n/a	n/a	n/a	1
149.349	0.399999066	TONIC	lure	n/a	n/a	n/a	1
149.749	0.583326601	PANTHER	lure	n/a	n/a	n/a	1
150.333	0.599986444	EXPENSE	lure	n/a	n/a	n/a	1
150.932	0.533332312	ECONOMY	lure	n/a	n/a	n/a	1
151.466	2.016634324	DITCH	long	n/a	n/a	n/a	1
153.482	0.433380082	CONCERT	lure	n/a	n/a	n/a	1
153.916	0.516610181	EMPLOYEE	lure	n/a	n/a	n/a	1
154.432	0.716658367	METAPHYSIC	lure	n/a	n/a	n/a	1
155.149	0.433326462	SCIENCE	lure	n/a	n/a	n/a	1
155.582	0.533371499	FLAX	lure	n/a	n/a	n/a	1
156.116	0.466812571	HORNPIPE	lure	n/a	n/a	n/a	1
156.583	0.433133592	REBEL	lure	n/a	n/a	n/a	1
157.016	0.399990763	EQUITY	lure	n/a	n/a	n/a	1
157.416	0.399994301	VENISON	lure	n/a	n/a	n/a	1
157.816	0.50004948	IMMODESTY	lure	n/a	n/a	n/a	1
158.316	0.533273234	NECKTIE	lure	n/a	n/a	n/a	1
158.849	0.499988071	CRAWLER	lure	n/a	n/a	n/a	1
159.349	0.333332644	AEROPLANE	lure	n/a	n/a	n/a	1
159.682	0.61665384	COLUMN	short	n/a	n/a	n/a	1
160.299	0.31672055	POND	lure	n/a	n/a	n/a	1
160.616	0.350005042	CAB	lure	n/a	n/a	n/a	1
160.966	0.716591443	CLOUDBURST	lure	n/a	n/a	n/a	1
161.682	0.699990142	FEATHER	lure	n/a	n/a	n/a	1
162.382	0.533327923	POACHER	lure	n/a	n/a	n/a	1
162.916	0.63619258	QUILT	lure	n/a	n/a	n/a	1
163.552	0.630454797	HEARSE	lure	n/a	n/a	n/a	1
164.182	0.649994038	STATEROOM	lure	n/a	n/a	n/a	1
164.832	0.716654477	LIMOUSINE	lure	n/a	n/a	n/a	1
165.549	0.566661978	NEWCOMER	lure	n/a	n/a	n/a	1
166.116	0.700037478	COCHLEA	lure	n/a	n/a	n/a	1
166.816	0.549945248	SEACOAST	lure	n/a	n/a	n/a	1
167.366	0.400041013	PROTON	lure	n/a	n/a	n/a	1
167.766	2.016589423	DIRT	long	n/a	n/a	n/a	1
169.782	0.733371851	SNOWDRIFT	lure	n/a	n/a	n/a	1
170.516	0.466613142	HERON	lure	n/a	n/a	n/a	1
170.982	0.366701347	THIMBLE	lure	n/a	n/a	n/a	1
171.349	0.4832879	LETTUCE	lure	n/a	n/a	n/a	1
171.832	0.41666101	TASSEL	lure	n/a	n/a	n/a	1
172.249	0.516657357	SAWMILL	lure	n/a	n/a	n/a	1
172.766	0.733326552	UPTURN	lure	n/a	n/a	n/a	1
173.499	0.683319045	NOVA	lure	n/a	n/a	n/a	1
174.182	0.616660358	RIVALRY	lure	n/a	n/a	n/a	1
174.799	0.649992634	LOTTO	lure	n/a	n/a	n/a	1
175.449	0.499997204	NEARSIDE	lure	n/a	n/a	n/a	1
175.949	2.016635597	LETTER	long	n/a	n/a	n/a	1
177.965	0.383366818	ENTHUSIAST	lure	n/a	n/a	n/a	1
178.349	0.499957216	INTENTION	lure	n/a	n/a	n/a	1
178.849	0.520329357	RIBBING	lure	n/a	n/a	n/a	1
179.369	0.37965865	KNOLL	lure	n/a	n/a	n/a	1
179.749	0.649990985	HONEY	lure	n/a	n/a	n/a	1
180.399	0.400039127	STEAD	lure	n/a	n/a	n/a	1
180.799	0.466611532	WAY	lure	n/a	n/a	n/a	1
181.265	0.750049443	STUD	lure	n/a	n/a	n/a	1
182.015	0.436989489	PENSION	lure	n/a	n/a	n/a	1
182.452	0.362944049	CARTOON	lure	n/a	n/a	n/a	1
182.815	0.649988419	DRUMHEAD	lure	n/a	n/a	n/a	1
183.465	0.66671804	MOTTO	lure	n/a	n/a	n/a	1
184.132	2.016584057	ELBOW	long	n/a	n/a	n/a	1
186.149	0.63337676	TOWNSHIP	lure	n/a	n/a	n/a	1
186.782	0.366607398	PLYWOOD	lure	n/a	n/a	n/a	1
187.149	0.366662044	OXTAIL	lure	n/a	n/a	n/a	1
187.515	0.366662268	LOUNGER	lure	n/a	n/a	n/a	1
187.882	0.716655239	ROD	lure	n/a	n/a	n/a	1
188.599	0.749989981	RESENTMENT	lure	n/a	n/a	n/a	1
189.349	0.433329085	GRANDPA	lure	n/a	n/a	n/a	1
189.782	0.433325657	DEVICE	lure	n/a	n/a	n/a	1
190.215	0.516660382	HANDMAID	lure	n/a	n/a	n/a	1
190.732	0.349990596	AFFAIR	lure	n/a	n/a	n/a	1
191.082	0.649995592	SALESGIRL	lure	n/a	n/a	n/a	1
191.732	0.535544823	BLOODSTOCK	lure	n/a	n/a	n/a	1
192.267	0.614441331	COUNCIL	short	n/a	n/a	n/a	1
192.882	0.766654863	OATH	lure	n/a	n/a	n/a	1
193.649	0.583326894	EPOCH	lure	n/a	n/a	n/a	1
194.232	0.716652698	FAMILY	lure	n/a	n/a	n/a	1
194.949	0.618261807	RAZOR	lure	n/a	n/a	n/a	1
195.567	0.398390742	ACTUALITY	lure	n/a	n/a	n/a	1
195.965	0.616706539	SPANGLE	lure	n/a	n/a	n/a	1
196.582	0.449949293	ASSISTANCE	lure	n/a	n/a	n/a	1
197.032	0.549992963	VACCINE	lure	n/a	n/a	n/a	1
197.582	0.383328648	SAVER	lure	n/a	n/a	n/a	1
197.965	0.383326555	PONCHO	lure	n/a	n/a	n/a	1
198.349	0.550657206	CENTRIFUGE	lure	n/a	n/a	n/a	1
198.899	0.59932763	RUG	lure	n/a	n/a	n/a	1
199.499	0.483326678	SPECTACLE	lure	n/a	n/a	n/a	1
199.982	0.516658984	DIMENSION	lure	n/a	n/a	n/a	1
200.498	1.066652993	KIWI	fruit	548	2	2	1
201.565	0.466660907	GROCERY	lure	n/a	n/a	n/a	1
202.032	0.699990325	AUCTIONEER	lure	n/a	n/a	n/a	1
202.732	0.483326245	EXPERTISE	lure	n/a	n/a	n/a	1
203.215	0.366661199	DECADE	lure	n/a	n/a	n/a	1
203.582	0.716653796	GLORY	lure	n/a	n/a	n/a	1
204.298	0.433381206	INCUBATION	lure	n/a	n/a	n/a	1
204.732	0.649940048	PRELUDE	lure	n/a	n/a	n/a	1
205.382	0.683325919	THYME	lure	n/a	n/a	n/a	1
206.065	0.716653177	CONCERTO	lure	n/a	n/a	n/a	1
206.782	0.683327847	FLOWERBED	lure	n/a	n/a	n/a	1
207.465	0.649991514	DISCRETION	lure	n/a	n/a	n/a	1
208.115	0.683322997	HOMELAND	lure	n/a	n/a	n/a	1
208.798	0.616660202	ROOT	short	n/a	n/a	n/a	1
209.415	0.533326451	PAYCHECK	lure	n/a	n/a	n/a	1
209.948	0.366659498	LAKE	lure	n/a	n/a	n/a	1
210.315	0.716656643	SPECTER	lure	n/a	n/a	n/a	1
211.032	0.699993272	TURNOUT	lure	n/a	n/a	n/a	1
211.732	0.666655923	CLINCHER	lure	n/a	n/a	n/a	1
212.398	0.43332684	TELEGRAPHY	lure	n/a	n/a	n/a	1
212.832	0.650072564	TRANSLATOR	lure	n/a	n/a	n/a	1
213.482	0.349915187	MICROWAVE	lure	n/a	n/a	n/a	1
213.832	0.533327149	GORILLA	lure	n/a	n/a	n/a	1
214.365	0.366655445	UNCLE	lure	n/a	n/a	n/a	1
214.732	0.599997743	ADVENTURE	lure	n/a	n/a	n/a	1
215.332	0.333323702	MEDIC	lure	n/a	n/a	n/a	1
215.665	0.733326898	JUNCTION	lure	n/a	n/a	n/a	1
216.398	0.716652609	LAMB	lure	n/a	n/a	n/a	1
217.115	1.016657593	KIWI	fruit	564	2	2	1
218.132	0.383329239	BOOSTER	lure	n/a	n/a	n/a	1
218.515	0.599990974	CAUSEWAY	lure	n/a	n/a	n/a	1
219.115	0.566659471	WIFE	lure	n/a	n/a	n/a	1
219.682	0.716657741	MAGMA	lure	n/a	n/a	n/a	1
220.398	0.433322143	CALFSKIN	lure	n/a	n/a	n/a	1
220.832	0.499997354	NECKBAND	lure	n/a	n/a	n/a	1
221.332	0.549994066	URCHIN	lure	n/a	n/a	n/a	1
221.882	0.59999152	COMA	lure	n/a	n/a	n/a	1
222.482	0.483325671	CHOIRBOY	lure	n/a	n/a	n/a	1
222.965	0.633375368	OPIUM	lure	n/a	n/a	n/a	1
223.598	0.583400552	MIDPOINT	lure	n/a	n/a	n/a	1
224.182	0.566586157	PALLET	lure	n/a	n/a	n/a	1
224.748	0.616607172	SEEKER	lure	n/a	n/a	n/a	1
225.365	0.483320828	ADDRESSEE	lure	n/a	n/a	n/a	1
225.848	0.483331015	WOODCRAFT	lure	n/a	n/a	n/a	1
226.331	0.533325787	EASTERNER	lure	n/a	n/a	n/a	1
226.865	n/a	SCULPTOR	lure	n/a	n/a	n/a	1
238.015	0.56671312	EMPEROR	lure	n/a	n/a	n/a	1
238.581	0.683268967	CONFIDENCE	lure	n/a	n/a	n/a	1
239.265	0.466660013	CHAUVINIST	lure	n/a	n/a	n/a	1
239.731	0.749988476	BOOTLEGGER	lure	n/a	n/a	n/a	1
240.481	0.733970272	BOUGH	lure	n/a	n/a	n/a	1
241.215	0.566010799	SUNBURN	lure	n/a	n/a	n/a	1
241.781	1.016656947	PEACH	fruit	721	2	2	1
242.798	0.566659593	EJECTION	lure	n/a	n/a	n/a	1
243.365	0.433323443	GRENADINE	lure	n/a	n/a	n/a	1
243.798	0.73332817	ROBBER	lure	n/a	n/a	n/a	1
244.531	0.399994384	REGISTRY	lure	n/a	n/a	n/a	1
244.931	0.633324455	SATURATION	lure	n/a	n/a	n/a	1
245.565	0.349994403	COMEDIAN	lure	n/a	n/a	n/a	1
245.915	0.699989859	CUCKOO	lure	n/a	n/a	n/a	1
246.615	0.449993882	ANTLER	lure	n/a	n/a	n/a	1
247.065	0.34999621	PROBLEM	lure	n/a	n/a	n/a	1
247.415	0.583326373	WELFARE	lure	n/a	n/a	n/a	1
247.998	0.399994585	PURPOSE	lure	n/a	n/a	n/a	1
248.398	0.433325742	PENNANT	lure	n/a	n/a	n/a	1
248.831	0.749989702	INHIBITOR	lure	n/a	n/a	n/a	1
249.581	0.633326367	ZENITH	lure	n/a	n/a	n/a	1
250.214	0.616659921	COLUMN	short	n/a	n/a	n/a	1
250.831	0.716654091	DEMOTION	lure	n/a	n/a	n/a	1
251.548	0.349996258	BRIDESMAID	lure	n/a	n/a	n/a	1
251.898	0.716657979	INCAPACITY	lure	n/a	n/a	n/a	1
252.614	0.599990886	DILL	lure	n/a	n/a	n/a	1
253.214	0.733323094	TURMOIL	lure	n/a	n/a	n/a	1
253.948	0.633324236	WRITER	lure	n/a	n/a	n/a	1
254.581	0.599992214	INNKEEPER	lure	n/a	n/a	n/a	1
255.181	0.433327875	CITIZEN	lure	n/a	n/a	n/a	1
255.614	0.704740748	CALAMITY	lure	n/a	n/a	n/a	1
256.319	0.361908554	EPILOGUE	lure	n/a	n/a	n/a	1
256.681	0.633326903	WOODCOCK	lure	n/a	n/a	n/a	1
257.314	0.583386992	PLENTY	lure	n/a	n/a	n/a	1
257.898	0.366599794	SHAMMY	lure	n/a	n/a	n/a	1
258.264	0.616661489	COUNCIL	short	n/a	n/a	n/a	1
258.881	0.433327554	BELIEVER	lure	n/a	n/a	n/a	1
259.314	0.566656785	EXCAVATOR	lure	n/a	n/a	n/a	1
259.881	0.583325077	CIVILITY	lure	n/a	n/a	n/a	1
260.464	0.749990913	LUMINARY	lure	n/a	n/a	n/a	1
261.214	0.499992881	TRACTOR	lure	n/a	n/a	n/a	1
261.714	0.333328443	TOLERATION	lure	n/a	n/a	n/a	1
262.048	0.416676963	INFANTRY	lure	n/a	n/a	n/a	1
262.464	0.616643054	ROADHOUSE	lure	n/a	n/a	n/a	1
263.081	0.733323462	GARDENER	lure	n/a	n/a	n/a	1
263.814	0.733323993	SPECTRA	lure	n/a	n/a	n/a	1
264.548	0.383323826	QUICKSTEP	lure	n/a	n/a	n/a	1
264.931	0.333332281	EMBLEM	lure	n/a	n/a	n/a	1
265.264	0.499990158	BRIGADE	lure	n/a	n/a	n/a	1
265.764	0.58338875	COUNSELOR	lure	n/a	n/a	n/a	1
266.348	2.016576864	LETTER	long	n/a	n/a	n/a	1
268.364	0.633327274	MARE	lure	n/a	n/a	n/a	1
268.998	0.416660675	RISER	lure	n/a	n/a	n/a	1
269.414	0.416661434	JOY	lure	n/a	n/a	n/a	1
269.831	0.333329536	RIDDANCE	lure	n/a	n/a	n/a	1
270.164	0.433374294	HOSPICE	lure	n/a	n/a	n/a	1
270.598	0.64994514	STREAKER	lure	n/a	n/a	n/a	1
271.248	0.333326469	HURLER	lure	n/a	n/a	n/a	1
271.581	0.383329628	PROMOTION	lure	n/a	n/a	n/a	1
271.964	0.749989958	RHEUMATISM	lure	n/a	n/a	n/a	1
272.714	0.466657493	BASELINE	lure	n/a	n/a	n/a	1
273.181	0.649993938	WIDOW	lure	n/a	n/a	n/a	1
273.831	0.566657145	POSTCODE	lure	n/a	n/a	n/a	1
274.397	2.016640711	DOME	long	n/a	n/a	n/a	1
276.414	0.349993862	COMMERCE	lure	n/a	n/a	n/a	1
276.764	0.599994836	PLAYER	lure	n/a	n/a	n/a	1
277.364	0.316716697	FACULTY	lure	n/a	n/a	n/a	1
277.681	0.349935611	SKIRMISH	lure	n/a	n/a	n/a	1
278.031	0.733387751	OFFENSE	lure	n/a	n/a	n/a	1
278.764	0.683264192	BIRCH	lure	n/a	n/a	n/a	1
279.447	0.316662023	PLANNER	lure	n/a	n/a	n/a	1
279.764	0.633325492	MAIDEN	lure	n/a	n/a	n/a	1
280.397	0.383327668	TROOPSHIP	lure	n/a	n/a	n/a	1
280.781	0.566659809	AMUSEMENT	lure	n/a	n/a	n/a	1
281.347	0.583326967	DURATION	lure	n/a	n/a	n/a	1
281.931	0.599987992	TAXONOMY	lure	n/a	n/a	n/a	1
282.531	2.016644806	FOREST	long	n/a	n/a	n/a	1
284.547	0.366658393	DUDE	lure	n/a	n/a	n/a	1
284.914	0.399994342	WATERSHED	lure	n/a	n/a	n/a	1
285.314	0.433327636	GIZZARD	lure	n/a	n/a	n/a	1
285.747	0.399994603	LAMP	lure	n/a	n/a	n/a	1
286.147	0.433328822	EXPANSE	lure	n/a	n/a	n/a	1
286.581	0.649986188	CASKET	lure	n/a	n/a	n/a	1
287.231	0.350048376	MORROW	lure	n/a	n/a	n/a	1
287.581	0.483695453	STINT	lure	n/a	n/a	n/a	1
288.064	0.466243162	POODLE	lure	n/a	n/a	n/a	1
288.531	0.333329023	PERSONAGE	lure	n/a	n/a	n/a	1
288.864	0.683323871	DISTEMPER	lure	n/a	n/a	n/a	1
289.547	0.449993008	STRATEGY	lure	n/a	n/a	n/a	1
289.997	0.383387979	HALO	lure	n/a	n/a	n/a	1
290.381	2.016581227	CURB	long	n/a	n/a	n/a	1
292.397	0.333327549	ORDINATE	lure	n/a	n/a	n/a	1
292.731	0.333329481	RESIDENCY	lure	n/a	n/a	n/a	1
293.064	0.466719323	ALLEGORY	lure	n/a	n/a	n/a	1
293.531	0.666598073	WATT	lure	n/a	n/a	n/a	1
294.197	0.483324129	TACT	lure	n/a	n/a	n/a	1
294.681	0.449996767	RAPIDITY	lure	n/a	n/a	n/a	1
295.131	0.533329156	CONGESTION	lure	n/a	n/a	n/a	1
295.664	0.753751657	RECOUNT	lure	n/a	n/a	n/a	1
296.418	0.746224632	STRENGTH	lure	n/a	n/a	n/a	1
297.164	0.49999551	EMBODIMENT	lure	n/a	n/a	n/a	1
297.664	0.733321593	GUEST	lure	n/a	n/a	n/a	1
298.397	0.683320841	REGIME	lure	n/a	n/a	n/a	1
299.08	0.616660094	TIMBER	short	n/a	n/a	n/a	1
299.697	0.633373244	GREED	lure	n/a	n/a	n/a	1
300.331	0.399948881	EXORCISM	lure	n/a	n/a	n/a	1
300.73	0.583323638	SPRINGTIME	lure	n/a	n/a	n/a	1
301.314	0.433325053	HIPPO	lure	n/a	n/a	n/a	1
301.747	0.583328947	INSIDER	lure	n/a	n/a	n/a	1
302.33	0.783322794	EUPHORIA	lure	n/a	n/a	n/a	1
303.114	0.699990337	LANDSLIDE	lure	n/a	n/a	n/a	1
303.814	0.733323428	RAZORBACK	lure	n/a	n/a	n/a	1
304.547	0.416663145	PETTICOAT	lure	n/a	n/a	n/a	1
304.964	0.583324584	STEPLADDER	lure	n/a	n/a	n/a	1
305.547	0.749989444	DUNE	lure	n/a	n/a	n/a	1
306.297	0.683324305	SEASON	lure	n/a	n/a	n/a	1
306.98	0.483382661	WALLBOARD	lure	n/a	n/a	n/a	1
307.464	2.016586122	FRONTIER	long	n/a	n/a	n/a	1
309.48	0.69998827	ANNULMENT	lure	n/a	n/a	n/a	1
310.18	0.416657196	CARDBOARD	lure	n/a	n/a	n/a	1
310.597	0.349997967	SUNDIAL	lure	n/a	n/a	n/a	1
310.947	0.333328655	SOFTWARE	lure	n/a	n/a	n/a	1
311.28	0.433328208	STORY	lure	n/a	n/a	n/a	1
311.714	0.666657606	OVERTONE	lure	n/a	n/a	n/a	1
312.38	0.516659603	CRUELTY	lure	n/a	n/a	n/a	1
312.897	0.71669753	LOCKER	lure	n/a	n/a	n/a	1
313.614	0.53328096	SPECK	lure	n/a	n/a	n/a	1
314.147	0.433327762	SHOWDOWN	lure	n/a	n/a	n/a	1
314.58	0.549996807	FORMAT	lure	n/a	n/a	n/a	1
315.13	0.633322668	DRAGONFLY	lure	n/a	n/a	n/a	1
315.764	1.016652315	PINEAPPLE	fruit	795	2	2	1
316.78	0.583328431	AFFIX	lure	n/a	n/a	n/a	1
317.364	0.616659066	CAROL	lure	n/a	n/a	n/a	1
317.98	0.749988835	NIGHTHAWK	lure	n/a	n/a	n/a	1
318.73	0.666654426	NEUTRALITY	lure	n/a	n/a	n/a	1
319.397	0.633327998	FAREWELL	lure	n/a	n/a	n/a	1
320.03	0.583329589	ADAPTATION	lure	n/a	n/a	n/a	1
320.614	0.633322401	EGOTISM	lure	n/a	n/a	n/a	1
321.247	0.533323093	DIRECTOR	lure	n/a	n/a	n/a	1
321.78	0.499994909	RUBDOWN	lure	n/a	n/a	n/a	1
322.28	0.616659262	PHYSIOLOGY	lure	n/a	n/a	n/a	1
322.897	0.54999218	WEALTH	lure	n/a	n/a	n/a	1
323.447	0.366661087	RHINESTONE	lure	n/a	n/a	n/a	1
323.814	0.61665846	SAWDUST	short	n/a	n/a	n/a	1
324.43	0.499993826	VICTOR	lure	n/a	n/a	n/a	1
324.93	0.633325321	MYSTERY	lure	n/a	n/a	n/a	1
325.563	0.58332531	FOOTSIE	lure	n/a	n/a	n/a	1
326.147	0.421267212	LOCOMOTION	lure	n/a	n/a	n/a	1
326.568	0.678715217	GIRAFFE	lure	n/a	n/a	n/a	1
327.247	0.416662444	SCOURGE	lure	n/a	n/a	n/a	1
327.663	0.54999276	PRETZEL	lure	n/a	n/a	n/a	1
328.213	0.63332491	SUPREME	lure	n/a	n/a	n/a	1
328.847	0.399996879	SURVIVOR	lure	n/a	n/a	n/a	1
329.247	0.369645287	IMMENSITY	lure	n/a	n/a	n/a	1
329.616	0.747003878	EVERYONE	lure	n/a	n/a	n/a	1
330.363	0.716658282	NORMALITY	lure	n/a	n/a	n/a	1
331.08	0.649990243	BERET	lure	n/a	n/a	n/a	1
331.73	0.64999086	MANIA	lure	n/a	n/a	n/a	1
332.38	1.017718168	MELON	fruit	635	2	2	1
333.398	0.715594344	POSTURE	lure	n/a	n/a	n/a	1
334.113	0.749988174	HIDEOUT	lure	n/a	n/a	n/a	1
334.863	0.7166546	GOOBER	lure	n/a	n/a	n/a	1
335.58	0.670161765	DIVORCEE	lure	n/a	n/a	n/a	1
336.25	0.663155541	RINGSIDE	lure	n/a	n/a	n/a	1
336.913	0.499992831	CHILDHOOD	lure	n/a	n/a	n/a	1
337.413	0.583322796	HARDWARE	lure	n/a	n/a	n/a	1
337.997	0.733326472	WEAKLING	lure	n/a	n/a	n/a	1
338.73	0.636696644	HARPIST	lure	n/a	n/a	n/a	1
339.367	0.496673624	WOMANKIND	lure	n/a	n/a	n/a	1
339.863	0.599940563	RECURRENCE	lure	n/a	n/a	n/a	1
340.463	1.016652561	PLUM	fruit	680	2	2	1
341.48	0.50004049	TRADESMAN	lure	n/a	n/a	n/a	1
341.98	0.754037755	DISARRAY	lure	n/a	n/a	n/a	1
342.734	0.762561955	STAIRCASE	lure	n/a	n/a	n/a	1
343.497	0.616660136	RESIDENCE	lure	n/a	n/a	n/a	1
344.113	0.516657668	FRUGALITY	lure	n/a	n/a	n/a	1
344.63	0.766655604	VENDETTA	lure	n/a	n/a	n/a	1
345.397	0.319800023	LIFELINE	lure	n/a	n/a	n/a	1
345.716	0.696854032	SISTER	lure	n/a	n/a	n/a	1
346.413	0.583324182	ATTORNEY	lure	n/a	n/a	n/a	1
346.997	0.599991555	SNOUT	lure	n/a	n/a	n/a	1
347.597	0.316769511	COMPARISON	lure	n/a	n/a	n/a	1
347.913	0.333224387	SUBMERSION	lure	n/a	n/a	n/a	1
348.247	0.616656753	MUZZLE	short	n/a	n/a	n/a	1
348.863	0.516659509	CONTENT	lure	n/a	n/a	n/a	1
349.38	0.399994127	OTTER	lure	n/a	n/a	n/a	1
349.78	0.616707743	KIN	lure	n/a	n/a	n/a	1
350.397	0.633275256	MOTHERLAND	lure	n/a	n/a	n/a	1
351.03	0.633325076	ARMOR	lure	n/a	n/a	n/a	1
351.663	0.79999043	SLEDGE	lure	n/a	n/a	n/a	1
352.463	0.599990578	FIREWOOD	lure	n/a	n/a	n/a	1
353.063	0.666659118	NUN	lure	n/a	n/a	n/a	1
353.73	0.600040962	PENDULUM	lure	n/a	n/a	n/a	1
354.33	0.516609527	PLAQUE	lure	n/a	n/a	n/a	1
354.846	0.633323614	MONARCHY	lure	n/a	n/a	n/a	1
355.48	0.399995696	BOARDWALK	lure	n/a	n/a	n/a	1
355.88	0.483326693	DOT	lure	n/a	n/a	n/a	1
356.363	0.399994638	GELATIN	lure	n/a	n/a	n/a	1
356.763	0.616659086	ROOT	short	n/a	n/a	n/a	1
357.38	0.700037601	LOVER	lure	n/a	n/a	n/a	1
358.08	0.466746267	LIPID	lure	n/a	n/a	n/a	1
358.547	0.433194394	PATROLMAN	lure	n/a	n/a	n/a	1
358.98	0.516660906	UNISON	lure	n/a	n/a	n/a	1
359.496	0.583321438	EVIDENCE	lure	n/a	n/a	n/a	1
360.08	0.400059076	PENTAGON	lure	n/a	n/a	n/a	1
360.48	0.466598072	BACKPACK	lure	n/a	n/a	n/a	1
360.946	0.587491185	BOUQUET	lure	n/a	n/a	n/a	1
361.534	0.679156212	INABILITY	lure	n/a	n/a	n/a	1
362.213	0.616660783	FRAGMENT	lure	n/a	n/a	n/a	1
362.83	0.583325293	DUFFEL	lure	n/a	n/a	n/a	1
363.413	0.64998921	PAYDAY	lure	n/a	n/a	n/a	1
364.063	0.451211682	WINDER	lure	n/a	n/a	n/a	1
364.514	0.648775672	BOROUGH	lure	n/a	n/a	n/a	1
365.163	2.016643238	ELBOW	long	n/a	n/a	n/a	1
367.18	0.433324223	SHORTBREAD	lure	n/a	n/a	n/a	1
367.613	0.349995446	COMMUTE	lure	n/a	n/a	n/a	1
367.963	0.700073523	SABLE	lure	n/a	n/a	n/a	1
368.663	0.566575072	RETAILER	lure	n/a	n/a	n/a	1
369.23	0.483389867	MANDOLIN	lure	n/a	n/a	n/a	1
369.713	0.58326253	BIGAMY	lure	n/a	n/a	n/a	1
370.296	0.43663362	GODMOTHER	lure	n/a	n/a	n/a	1
370.733	0.43002321	SMALLPOX	lure	n/a	n/a	n/a	1
371.163	0.533324467	EMBASSY	lure	n/a	n/a	n/a	1
371.696	0.549992356	FALLACY	lure	n/a	n/a	n/a	1
372.246	0.566662584	FLATTOP	lure	n/a	n/a	n/a	1
372.813	0.36665858	PACKAGE	lure	n/a	n/a	n/a	1
373.18	2.016639646	SPONGE	long	n/a	n/a	n/a	1
375.196	0.4167195	FREEHOLDER	lure	n/a	n/a	n/a	1
375.613	0.33326997	GOOSE	lure	n/a	n/a	n/a	1
375.946	0.699990335	EXTROVERT	lure	n/a	n/a	n/a	1
376.646	0.433386414	MORSEL	lure	n/a	n/a	n/a	1
377.08	0.616647909	HOOKY	lure	n/a	n/a	n/a	1
377.696	0.69999371	FARMHAND	lure	n/a	n/a	n/a	1
378.396	0.616656427	MALLET	lure	n/a	n/a	n/a	1
379.013	0.699942192	INSIGHT	lure	n/a	n/a	n/a	1
379.713	0.483326097	PETROLEUM	lure	n/a	n/a	n/a	1
380.196	0.566659083	UNIVERSITY	lure	n/a	n/a	n/a	1
380.763	0.533393441	HOUSEWORK	lure	n/a	n/a	n/a	1
381.296	0.616590923	CARD	short	n/a	n/a	n/a	1
381.913	0.533327134	PRANK	lure	n/a	n/a	n/a	1
382.446	0.666658072	PRIEST	lure	n/a	n/a	n/a	1
383.113	0.449992261	POPULISM	lure	n/a	n/a	n/a	1
383.563	0.749990775	VOLCANO	lure	n/a	n/a	n/a	1
384.313	0.666732251	OKRA	lure	n/a	n/a	n/a	1
384.979	0.54991817	EXCAVATION	lure	n/a	n/a	n/a	1
385.529	0.316662031	SCRIPTURE	lure	n/a	n/a	n/a	1
385.846	0.499993562	CONVEYANCE	lure	n/a	n/a	n/a	1
386.346	0.616657951	MASTERSHIP	lure	n/a	n/a	n/a	1
386.963	0.616658555	KANGAROO	lure	n/a	n/a	n/a	1
387.579	0.749991304	TINFOIL	lure	n/a	n/a	n/a	1
388.329	0.733368287	COMPANY	lure	n/a	n/a	n/a	1
389.063	0.567059656	PRONOUN	lure	n/a	n/a	n/a	1
389.63	0.616210841	WALLET	short	n/a	n/a	n/a	1
390.246	0.716659993	SHIRTWAIST	lure	n/a	n/a	n/a	1
390.963	0.416659545	FAIRYLAND	lure	n/a	n/a	n/a	1
391.379	0.58332537	REHASH	lure	n/a	n/a	n/a	1
391.963	0.516704881	SUGARLOAF	lure	n/a	n/a	n/a	1
392.479	0.666662717	MARL	lure	n/a	n/a	n/a	1
393.146	0.416606887	TREACHERY	lure	n/a	n/a	n/a	1
393.563	0.499997007	DAYDREAM	lure	n/a	n/a	n/a	1
394.063	0.699991959	DOOR	lure	n/a	n/a	n/a	1
394.763	0.499991836	HUBCAP	lure	n/a	n/a	n/a	1
395.263	0.383326725	SENIORITY	lure	n/a	n/a	n/a	1
395.646	0.349995413	PAVEMENT	lure	n/a	n/a	n/a	1
395.996	0.583325346	TRADESMEN	lure	n/a	n/a	n/a	1
396.579	0.65005391	RASCAL	lure	n/a	n/a	n/a	1
397.229	0.549930849	BASILICA	lure	n/a	n/a	n/a	1
397.779	2.016637511	DIRT	long	n/a	n/a	n/a	1
399.796	0.516662159	REMNANT	lure	n/a	n/a	n/a	1
400.312	0.449990423	OPULENCE	lure	n/a	n/a	n/a	1
400.762	0.616713867	GERANIUM	lure	n/a	n/a	n/a	1
401.379	0.369728415	BULLFROG	lure	n/a	n/a	n/a	1
401.749	0.513540832	JESTER	lure	n/a	n/a	n/a	1
402.262	0.64999295	PUDDING	lure	n/a	n/a	n/a	1
402.912	0.450050707	INGESTION	lure	n/a	n/a	n/a	1
403.362	0.549935359	ARMADILLO	lure	n/a	n/a	n/a	1
403.912	0.633323522	RECEPTACLE	lure	n/a	n/a	n/a	1
404.546	0.633324394	ENJOYMENT	lure	n/a	n/a	n/a	1
405.179	0.500053327	DAIRYMAN	lure	n/a	n/a	n/a	1
405.679	0.783261436	BIRDSEED	lure	n/a	n/a	n/a	1
406.462	0.616661748	HAMMER	short	n/a	n/a	n/a	1
407.079	0.683322463	BRINE	lure	n/a	n/a	n/a	1
407.762	0.683323147	FLATFOOT	lure	n/a	n/a	n/a	1
408.446	0.549994993	GUERILLA	lure	n/a	n/a	n/a	1
408.996	0.549990519	SCULLERY	lure	n/a	n/a	n/a	1
409.546	0.750063717	ADHESION	lure	n/a	n/a	n/a	1
410.296	0.485399315	CANAL	lure	n/a	n/a	n/a	1
410.781	0.681178413	ARCHITECT	lure	n/a	n/a	n/a	1
411.462	0.483328378	BATMAN	lure	n/a	n/a	n/a	1
411.946	0.666655366	BACON	lure	n/a	n/a	n/a	1
412.612	0.333331328	CASEWORK	lure	n/a	n/a	n/a	1
412.946	0.633322317	LAYOVER	lure	n/a	n/a	n/a	1
413.579	0.636528928	CAUSATION	lure	n/a	n/a	n/a	1
414.215	0.563514927	DISTORTION	lure	n/a	n/a	n/a	1
414.779	1.016593829	BLUEBERRY	fruit	628	2	2	1
415.796	0.416659993	FOOTNOTE	lure	n/a	n/a	n/a	1
416.212	0.550051298	SAGEBRUSH	lure	n/a	n/a	n/a	1
416.762	0.749932317	POTPOURRI	lure	n/a	n/a	n/a	1
417.512	0.349995004	AIRCREW	lure	n/a	n/a	n/a	1
417.862	0.66674595	HAZE	lure	n/a	n/a	n/a	1
418.529	0.399906943	TANDEM	lure	n/a	n/a	n/a	1
418.929	0.616657004	FOREWORD	lure	n/a	n/a	n/a	1
419.546	0.316723544	DEDUCTION	lure	n/a	n/a	n/a	1
419.862	0.566659416	PASSION	lure	n/a	n/a	n/a	1
420.429	0.666653566	SANDPIT	lure	n/a	n/a	n/a	1
421.096	0.316605733	ONLOOKER	lure	n/a	n/a	n/a	1
421.412	0.566658859	SOPHOMORE	lure	n/a	n/a	n/a	1
421.979	0.416663552	TIMEKEEPER	lure	n/a	n/a	n/a	1
422.396	0.433324604	BALLROOM	lure	n/a	n/a	n/a	1
422.829	1.066652515	MANGO	fruit	954	2	2	1
423.895	0.616716425	MEAD	lure	n/a	n/a	n/a	1
424.512	0.499935905	FIDELITY	lure	n/a	n/a	n/a	1
425.012	0.583325135	SABOTAGE	lure	n/a	n/a	n/a	1
425.595	0.633325066	CRYBABY	lure	n/a	n/a	n/a	1
426.229	0.583321365	SEXTON	lure	n/a	n/a	n/a	1
426.812	0.583328549	MORTAR	lure	n/a	n/a	n/a	1
427.395	0.684103593	TIPOFF	lure	n/a	n/a	n/a	1
428.08	0.765877273	PROFANITY	lure	n/a	n/a	n/a	1
428.845	0.516660352	NEWSPAPER	lure	n/a	n/a	n/a	1
429.362	0.699990541	ELVER	lure	n/a	n/a	n/a	1
430.062	0.699990255	GIN	lure	n/a	n/a	n/a	1
430.762	0.63482498	DONATION	lure	n/a	n/a	n/a	1
431.397	2.015141589	DITCH	long	n/a	n/a	n/a	1
433.412	0.633323838	COCA	lure	n/a	n/a	n/a	1
434.045	0.349995483	MESSENGER	lure	n/a	n/a	n/a	1
434.395	0.616719186	EXPEDIENCY	lure	n/a	n/a	n/a	1
435.012	0.699928546	FLUORIDE	lure	n/a	n/a	n/a	1
435.712	0.449994657	MOONSTONE	lure	n/a	n/a	n/a	1
436.162	0.716655141	ASSIGNMENT	lure	n/a	n/a	n/a	1
436.879	0.63332545	CANOPY	lure	n/a	n/a	n/a	1
437.512	0.399994808	FOXHOUND	lure	n/a	n/a	n/a	1
437.912	0.449994766	DISCORD	lure	n/a	n/a	n/a	1
438.362	0.666654038	IGLOO	lure	n/a	n/a	n/a	1
439.029	0.500051821	ROSETTE	lure	n/a	n/a	n/a	1
439.529	2.016581899	JAIL	long	n/a	n/a	n/a	1
441.545	0.550797251	INCITEMENT	lure	n/a	n/a	n/a	1
442.096	0.499192001	PIRACY	lure	n/a	n/a	n/a	1
442.595	0.716656227	STEPMOTHER	lure	n/a	n/a	n/a	1
443.312	0.399994407	TWISTER	lure	n/a	n/a	n/a	1
443.712	0.733323093	UPKEEP	lure	n/a	n/a	n/a	1
444.445	0.366663993	CLUMP	lure	n/a	n/a	n/a	1
444.812	0.549991789	OPPONENT	lure	n/a	n/a	n/a	1
445.362	0.738082761	NOBILITY	lure	n/a	n/a	n/a	1
446.1	0.378565638	REMORSE	lure	n/a	n/a	n/a	1
446.479	0.583332424	ENCLAVE	lure	n/a	n/a	n/a	1
447.062	0.649985047	LIMITATION	lure	n/a	n/a	n/a	1
447.712	0.616661376	ROAD	short	n/a	n/a	n/a	1
448.328	0.599992844	SNACK	lure	n/a	n/a	n/a	1
448.928	0.74998609	DEACON	lure	n/a	n/a	n/a	1
449.678	0.700049824	SWIMSUIT	lure	n/a	n/a	n/a	1
450.379	0.599934591	PETUNIA	lure	n/a	n/a	n/a	1
450.978	0.466660049	AUDACITY	lure	n/a	n/a	n/a	1
451.445	0.316719895	TEAHOUSE	lure	n/a	n/a	n/a	1
451.762	0.333268176	SPOILSPORT	lure	n/a	n/a	n/a	1
452.095	0.633385795	OBOE	lure	n/a	n/a	n/a	1
452.728	0.699929136	ONION	lure	n/a	n/a	n/a	1
453.428	0.399997253	TOBACCO	lure	n/a	n/a	n/a	1
453.828	0.716656903	VARIANCE	lure	n/a	n/a	n/a	1
454.545	0.516660101	DOUGH	lure	n/a	n/a	n/a	1
455.062	0.516719455	CHASER	lure	n/a	n/a	n/a	1
455.578	0.549932692	IDEOLOGIST	lure	n/a	n/a	n/a	1
456.128	0.699990941	ARCHER	lure	n/a	n/a	n/a	1
456.828	0.566716827	CRUSADER	lure	n/a	n/a	n/a	1
457.395	0.749933592	ENGAGEMENT	lure	n/a	n/a	n/a	1
458.145	0.333324271	PURSUANCE	lure	n/a	n/a	n/a	1
458.478	0.600053212	TOOTHPASTE	lure	n/a	n/a	n/a	1
459.078	0.51667799	LEGION	lure	n/a	n/a	n/a	1
459.595	0.466584782	MANHOLE	lure	n/a	n/a	n/a	1
460.062	0.683324426	INFAMY	lure	n/a	n/a	n/a	1
460.745	0.699989214	WALLFLOWER	lure	n/a	n/a	n/a	1
461.445	0.649990374	COLLATION	lure	n/a	n/a	n/a	1
462.095	0.31666174	PROSPECT	lure	n/a	n/a	n/a	1
462.412	0.483328282	PRIVILEGE	lure	n/a	n/a	n/a	1
462.895	0.516658462	TROUPE	lure	n/a	n/a	n/a	1
463.412	0.649993772	WOMEN	lure	n/a	n/a	n/a	1
464.062	0.433326692	MATADOR	lure	n/a	n/a	n/a	1
464.495	0.483325553	ACCORDION	lure	n/a	n/a	n/a	1
464.978	n/a	RANSOM	lure	n/a	n/a	n/a	1