onset	duration	stim	cond	RT	resp	cresp	acc
4.055	0.730498444	CREDENCE	lure	n/a	n/a	n/a	1
4.785	0.499993102	PARLIAMENT	lure	n/a	n/a	n/a	1
5.285	0.399995737	HUMORIST	lure	n/a	n/a	n/a	1
5.685	0.533325903	BAYOU	lure	n/a	n/a	n/a	1
6.219	0.36665942	WINNER	lure	n/a	n/a	n/a	1
6.585	0.749990199	DETERRENT	lure	n/a	n/a	n/a	1
7.335	0.699991363	VINYL	lure	n/a	n/a	n/a	1
8.035	2.016638583	FOREST	long	n/a	n/a	n/a	1
10.052	0.366745528	ANACONDA	lure	n/a	n/a	n/a	1
10.419	0.449909424	VENTILATOR	lure	n/a	n/a	n/a	1
10.869	0.316665667	STEAK	lure	n/a	n/a	n/a	1
11.185	0.59999045	WOOL	lure	n/a	n/a	n/a	1
11.785	0.59998743	CARTILAGE	lure	n/a	n/a	n/a	1
12.385	0.549996539	AFTERLIFE	lure	n/a	n/a	n/a	1
12.935	0.554779356	EMBARGO	lure	n/a	n/a	n/a	1
13.49	0.561870316	CHEST	lure	n/a	n/a	n/a	1
14.052	0.483328028	HEADLIGHT	lure	n/a	n/a	n/a	1
14.535	0.599991826	METRO	lure	n/a	n/a	n/a	1
15.135	0.383329303	MAYHEM	lure	n/a	n/a	n/a	1
15.519	0.683322824	CAMEO	lure	n/a	n/a	n/a	1
16.202	0.449992897	SUNBEAM	lure	n/a	n/a	n/a	1
16.652	2.016640631	LETTER	long	n/a	n/a	n/a	1
18.669	0.68332052	TRANCE	lure	n/a	n/a	n/a	1
19.352	0.437888445	REFUGEE	lure	n/a	n/a	n/a	1
19.79	0.312101599	WIGHT	lure	n/a	n/a	n/a	1
20.102	0.683327488	REPORTER	lure	n/a	n/a	n/a	1
20.785	0.549989622	MOWER	lure	n/a	n/a	n/a	1
21.335	0.616664217	DUCKBILL	lure	n/a	n/a	n/a	1
21.952	0.766654333	GODSPEED	lure	n/a	n/a	n/a	1
22.719	0.483326719	ADOBE	lure	n/a	n/a	n/a	1
23.202	0.833321642	REFILL	lure	n/a	n/a	n/a	1
24.035	0.499990418	CORNEA	lure	n/a	n/a	n/a	1
24.535	0.649994088	LULLABY	lure	n/a	n/a	n/a	1
25.185	0.616658921	SAWDUST	short	n/a	n/a	n/a	1
25.802	0.616658983	BEACH	lure	n/a	n/a	n/a	1
26.419	0.449992902	REVISION	lure	n/a	n/a	n/a	1
26.869	0.649990788	PADDOCK	lure	n/a	n/a	n/a	1
27.519	0.399995121	BINDER	lure	n/a	n/a	n/a	1
27.919	0.59999156	RAG	lure	n/a	n/a	n/a	1
28.518	0.499994229	BOURBON	lure	n/a	n/a	n/a	1
29.018	0.349992515	REFORMER	lure	n/a	n/a	n/a	1
29.368	0.516662205	IVORY	lure	n/a	n/a	n/a	1
29.885	0.449993541	WRECKER	lure	n/a	n/a	n/a	1
30.335	0.366658225	DOWNPOUR	lure	n/a	n/a	n/a	1
30.702	0.416663347	PERIOD	lure	n/a	n/a	n/a	1
31.118	0.499994013	CHICK	lure	n/a	n/a	n/a	1
31.618	0.366663478	WRESTLER	lure	n/a	n/a	n/a	1
31.985	0.649989043	CABARET	lure	n/a	n/a	n/a	1
32.635	0.583322503	BATCH	lure	n/a	n/a	n/a	1
33.218	0.416664633	TABLESPOON	lure	n/a	n/a	n/a	1
33.635	0.616655236	ROAD	short	n/a	n/a	n/a	1
34.252	0.316662176	SCHOLAR	lure	n/a	n/a	n/a	1
34.568	0.733330267	WHEAT	lure	n/a	n/a	n/a	1
35.302	0.333322518	REMARRIAGE	lure	n/a	n/a	n/a	1
35.635	0.38332817	KNOCKER	lure	n/a	n/a	n/a	1
36.018	0.516659382	PASTRAMI	lure	n/a	n/a	n/a	1
36.535	0.74999379	PIGSKIN	lure	n/a	n/a	n/a	1
37.285	0.366657598	SMOOTHIE	lure	n/a	n/a	n/a	1
37.652	0.416667375	GRATITUDE	lure	n/a	n/a	n/a	1
38.068	0.666656493	PRESIDENT	lure	n/a	n/a	n/a	1
38.735	0.754201625	BUMBLEBEE	lure	n/a	n/a	n/a	1
39.489	0.312446934	VERACITY	lure	n/a	n/a	n/a	1
39.802	0.466660757	RADISH	lure	n/a	n/a	n/a	1
40.268	0.533326055	FEEDER	lure	n/a	n/a	n/a	1
40.802	0.566661188	SURGERY	lure	n/a	n/a	n/a	1
41.368	0.483324578	ASYLUM	lure	n/a	n/a	n/a	1
41.852	2.016644832	DIRT	long	n/a	n/a	n/a	1
43.868	0.549988573	BLENDER	lure	n/a	n/a	n/a	1
44.418	0.766661237	LEVITATION	lure	n/a	n/a	n/a	1
45.185	0.483324194	CARVER	lure	n/a	n/a	n/a	1
45.668	0.733318575	REPRISAL	lure	n/a	n/a	n/a	1
46.402	0.736354698	SIMULATOR	lure	n/a	n/a	n/a	1
47.138	0.380296623	WITCH	lure	n/a	n/a	n/a	1
47.518	0.34999522	ANIMALISM	lure	n/a	n/a	n/a	1
47.868	0.449997854	CEREMONY	lure	n/a	n/a	n/a	1
48.318	0.599990982	TRIBESMEN	lure	n/a	n/a	n/a	1
48.918	0.349996268	SPIRIT	lure	n/a	n/a	n/a	1
49.268	0.399992494	MOTHER	lure	n/a	n/a	n/a	1
49.668	0.383333195	SKULLCAP	lure	n/a	n/a	n/a	1
50.052	0.64999192	CARD	short	n/a	n/a	n/a	1
50.702	0.649983718	TRIVIA	lure	n/a	n/a	n/a	1
51.352	0.59999444	DISRESPECT	lure	n/a	n/a	n/a	1
51.952	0.316662473	COURTESY	lure	n/a	n/a	n/a	1
52.268	0.65243092	SALTER	lure	n/a	n/a	n/a	1
52.921	0.58088704	PERVERSITY	lure	n/a	n/a	n/a	1
53.501	0.733324138	BANKER	lure	n/a	n/a	n/a	1
54.235	0.433324859	MEDAL	lure	n/a	n/a	n/a	1
54.668	0.550035273	FINGERTIP	lure	n/a	n/a	n/a	1
55.218	0.669765154	TORQUE	lure	n/a	n/a	n/a	1
55.888	0.580176681	WREATH	lure	n/a	n/a	n/a	1
56.468	0.399991322	SCARFACE	lure	n/a	n/a	n/a	1
56.868	0.583324607	MAINSTAY	lure	n/a	n/a	n/a	1
57.451	0.533328926	SHOESTRING	lure	n/a	n/a	n/a	1
57.985	0.616656827	MUZZLE	short	n/a	n/a	n/a	1
58.601	0.316666328	ACTIVATION	lure	n/a	n/a	n/a	1
58.918	0.599988835	VODKA	lure	n/a	n/a	n/a	1
59.518	0.699989374	COBWEB	lure	n/a	n/a	n/a	1
60.218	0.44999655	GRATUITY	lure	n/a	n/a	n/a	1
60.668	0.499996834	GULLET	lure	n/a	n/a	n/a	1
61.168	0.683321932	BACKSTROKE	lure	n/a	n/a	n/a	1
61.851	0.516697266	ACORN	lure	n/a	n/a	n/a	1
62.368	0.4666237	INVESTMENT	lure	n/a	n/a	n/a	1
62.835	0.399994407	PATIO	lure	n/a	n/a	n/a	1
63.235	0.549992361	RETAIL	lure	n/a	n/a	n/a	1
63.785	0.38332512	TYPHOON	lure	n/a	n/a	n/a	1
64.168	0.650945379	INSANITY	lure	n/a	n/a	n/a	1
64.819	0.565707482	SOBRIETY	lure	n/a	n/a	n/a	1
65.385	0.316659281	MACKEREL	lure	n/a	n/a	n/a	1
65.701	1.016654472	BANANA	fruit	673	2	2	1
66.718	0.416661899	STONEWORK	lure	n/a	n/a	n/a	1
67.135	0.399994406	JOURNEYMAN	lure	n/a	n/a	n/a	1
67.535	0.533325448	REACTOR	lure	n/a	n/a	n/a	1
68.068	0.649989589	PISTON	lure	n/a	n/a	n/a	1
68.718	0.399998224	PULLEY	lure	n/a	n/a	n/a	1
69.118	0.433324518	THORN	lure	n/a	n/a	n/a	1
69.551	0.649990256	HEARTTHROB	lure	n/a	n/a	n/a	1
70.201	0.666658665	COMMODITY	lure	n/a	n/a	n/a	1
70.868	0.499994357	PENMANSHIP	lure	n/a	n/a	n/a	1
71.368	0.366663776	MARBLE	lure	n/a	n/a	n/a	1
71.735	0.716652205	MOOD	lure	n/a	n/a	n/a	1
72.451	0.48333061	ASCENSION	lure	n/a	n/a	n/a	1
72.935	0.633323456	FUNFAIR	lure	n/a	n/a	n/a	1
73.568	0.366701101	STOCKMAN	lure	n/a	n/a	n/a	1
73.935	0.621155177	WALLET	short	n/a	n/a	n/a	1
74.556	0.32879098	FOLLICLE	lure	n/a	n/a	n/a	1
74.885	0.566657728	CORRELATE	lure	n/a	n/a	n/a	1
75.451	0.666661702	NEWSCASTER	lure	n/a	n/a	n/a	1
76.118	0.433388411	SOFTENER	lure	n/a	n/a	n/a	1
76.551	0.48326309	AMAZEMENT	lure	n/a	n/a	n/a	1
77.035	0.549996982	DEMON	lure	n/a	n/a	n/a	1
77.584	0.583321563	MUSTACHE	lure	n/a	n/a	n/a	1
78.168	0.599992884	ALLERGY	lure	n/a	n/a	n/a	1
78.768	0.566658121	FUNERAL	lure	n/a	n/a	n/a	1
79.334	0.566661488	PROPORTION	lure	n/a	n/a	n/a	1
79.901	0.533368758	CROSSOVER	lure	n/a	n/a	n/a	1
80.435	0.483281923	STIGMA	lure	n/a	n/a	n/a	1
80.918	0.516702799	CENTERLINE	lure	n/a	n/a	n/a	1
81.434	0.633285067	VANITY	lure	n/a	n/a	n/a	1
82.068	1.016651614	NECTARINE	fruit	n/a	n/a	2	0
83.084	0.666750903	CORNFIELD	lure	n/a	n/a	n/a	1
83.751	0.56656217	SNOWFALL	lure	n/a	n/a	n/a	1
84.318	0.349998956	LOCKOUT	lure	n/a	n/a	n/a	1
84.668	0.450043535	IMMUNITY	lure	n/a	n/a	n/a	1
85.118	0.433274573	VIRILITY	lure	n/a	n/a	n/a	1
85.551	0.566661431	HIERARCHY	lure	n/a	n/a	n/a	1
86.118	0.716656594	SYRUP	lure	n/a	n/a	n/a	1
86.834	0.399999789	GLOBE	lure	n/a	n/a	n/a	1
87.234	0.666652375	LOCKSMITH	lure	n/a	n/a	n/a	1
87.901	0.54999273	TOWNSMAN	lure	n/a	n/a	n/a	1
88.451	0.74998804	STALEMATE	lure	n/a	n/a	n/a	1
89.201	0.4833713	PRESIDENCY	lure	n/a	n/a	n/a	1
89.684	0.349951736	HOORAY	lure	n/a	n/a	n/a	1
90.034	0.700252202	BEAK	lure	n/a	n/a	n/a	1
90.735	1.016390758	GRAPEFRUIT	fruit	680	2	2	1
91.751	0.550021243	REDWOOD	lure	n/a	n/a	n/a	1
92.301	0.616629048	WARSHIP	lure	n/a	n/a	n/a	1
92.918	0.516666082	FAME	lure	n/a	n/a	n/a	1
93.434	0.34999162	PROCESSOR	lure	n/a	n/a	n/a	1
93.784	0.719203198	BELLHOP	lure	n/a	n/a	n/a	1
94.503	0.730831785	DEPOSITORY	lure	n/a	n/a	n/a	1
95.234	0.666602894	WHALE	lure	n/a	n/a	n/a	1
95.901	0.499991314	PAWNBROKER	lure	n/a	n/a	n/a	1
96.401	0.699996755	NOMAD	lure	n/a	n/a	n/a	1
97.101	0.535917013	LYRICISM	lure	n/a	n/a	n/a	1
97.637	0.497397173	COVERALL	lure	n/a	n/a	n/a	1
98.134	0.549991338	BICYCLIST	lure	n/a	n/a	n/a	1
98.684	2.016645628	ELBOW	long	n/a	n/a	n/a	1
100.701	0.433322167	PALETTE	lure	n/a	n/a	n/a	1
101.134	0.649994147	BLIMP	lure	n/a	n/a	n/a	1
101.784	0.433327459	FIXATION	lure	n/a	n/a	n/a	1
102.217	0.533323684	CADDY	lure	n/a	n/a	n/a	1
102.751	0.499992074	SUMMERTIME	lure	n/a	n/a	n/a	1
103.251	0.516688742	BROOM	lure	n/a	n/a	n/a	1
103.768	0.716673215	MARSH	lure	n/a	n/a	n/a	1
104.484	0.466618646	INSOMNIA	lure	n/a	n/a	n/a	1
104.951	0.566658043	COMMUNISM	lure	n/a	n/a	n/a	1
105.517	0.383366213	GRANITE	lure	n/a	n/a	n/a	1
105.901	0.383291554	GOVERNMENT	lure	n/a	n/a	n/a	1
106.284	0.516660477	PILL	lure	n/a	n/a	n/a	1
106.801	1.0500417	KIWI	fruit	678	2	2	1
107.851	0.483271994	HEARER	lure	n/a	n/a	n/a	1
108.334	0.333322819	Un/aEST	lure	n/a	n/a	n/a	1
108.667	0.466715801	TUMMY	lure	n/a	n/a	n/a	1
109.134	0.4832757	PLAYGROUND	lure	n/a	n/a	n/a	1
109.617	0.683321494	SHOWMEN	lure	n/a	n/a	n/a	1
110.301	0.483328958	DECEPTION	lure	n/a	n/a	n/a	1
110.784	0.399990848	RESIDENT	lure	n/a	n/a	n/a	1
111.184	0.383327998	FINALE	lure	n/a	n/a	n/a	1
111.567	0.63337831	TRICKSTER	lure	n/a	n/a	n/a	1
112.201	0.666609208	BROOMSTICK	lure	n/a	n/a	n/a	1
112.867	0.733320624	VIBRATION	lure	n/a	n/a	n/a	1
113.601	0.699990109	GUNNER	lure	n/a	n/a	n/a	1
114.301	0.53332666	CAMOMILE	lure	n/a	n/a	n/a	1
114.834	0.449998169	SORCERER	lure	n/a	n/a	n/a	1
115.284	2.016638228	DOME	long	n/a	n/a	n/a	1
117.301	0.416660281	CROSSBAR	lure	n/a	n/a	n/a	1
117.717	0.349996676	CREATION	lure	n/a	n/a	n/a	1
118.067	0.583369301	SAUNA	lure	n/a	n/a	n/a	1
118.651	0.583282029	COHESION	lure	n/a	n/a	n/a	1
119.234	0.600054781	MARKSMAN	lure	n/a	n/a	n/a	1
119.834	0.366599089	MAILMAN	lure	n/a	n/a	n/a	1
120.201	0.366655099	DEBAUCHERY	lure	n/a	n/a	n/a	1
120.567	0.666659422	LUGGAGE	lure	n/a	n/a	n/a	1
121.234	0.649991153	DIVERGENCE	lure	n/a	n/a	n/a	1
121.884	0.433332301	BREATH	lure	n/a	n/a	n/a	1
122.317	0.650038727	ISLE	lure	n/a	n/a	n/a	1
122.967	0.566659264	OSTEOPATHY	lure	n/a	n/a	n/a	1
123.534	0.616609594	COLUMN	short	n/a	n/a	n/a	1
124.151	0.316657015	RUT	lure	n/a	n/a	n/a	1
124.467	0.483329992	FOOD	lure	n/a	n/a	n/a	1
124.951	0.649987842	DECEIT	lure	n/a	n/a	n/a	1
125.601	0.549998883	BRAWN	lure	n/a	n/a	n/a	1
126.151	0.733321251	OPENER	lure	n/a	n/a	n/a	1
126.884	0.416660577	MILDEW	lure	n/a	n/a	n/a	1
127.3	0.54999377	TIBIA	lure	n/a	n/a	n/a	1
127.85	0.666657631	PLAYBACK	lure	n/a	n/a	n/a	1
128.517	0.683319656	BEET	lure	n/a	n/a	n/a	1
129.2	0.61666128	HAIRDO	lure	n/a	n/a	n/a	1
129.817	0.684690462	PREACHER	lure	n/a	n/a	n/a	1
130.502	0.781958379	SUNTAN	lure	n/a	n/a	n/a	1
131.284	0.666652837	HUNTER	lure	n/a	n/a	n/a	1
131.95	0.61666261	COUNCIL	short	n/a	n/a	n/a	1
132.567	0.666653918	HEARSAY	lure	n/a	n/a	n/a	1
133.234	0.383334207	LATITUDE	lure	n/a	n/a	n/a	1
133.617	0.549987629	WINDJAMMER	lure	n/a	n/a	n/a	1
134.167	0.583324134	COWBOY	lure	n/a	n/a	n/a	1
134.75	0.39999848	MODIFIER	lure	n/a	n/a	n/a	1
135.15	0.733325322	SCORCHER	lure	n/a	n/a	n/a	1
135.884	0.553976126	DEPORTMENT	lure	n/a	n/a	n/a	1
136.438	0.629395093	PAYMENT	lure	n/a	n/a	n/a	1
137.067	0.599932419	GAL	lure	n/a	n/a	n/a	1
137.667	0.533327336	APPRAISAL	lure	n/a	n/a	n/a	1
138.2	0.600029638	INIQUITY	lure	n/a	n/a	n/a	1
138.8	0.633337857	STATISTIC	lure	n/a	n/a	n/a	1
139.434	0.418897655	MOTIVATION	lure	n/a	n/a	n/a	1
139.853	0.647702057	WILDFIRE	lure	n/a	n/a	n/a	1
140.5	2.016644579	JAIL	long	n/a	n/a	n/a	1
142.517	0.719993651	DEMERIT	lure	n/a	n/a	n/a	1
143.237	0.313375689	CARTEL	lure	n/a	n/a	n/a	1
143.55	0.449944654	DUET	lure	n/a	n/a	n/a	1
144	0.71665195	CLARITY	lure	n/a	n/a	n/a	1
144.717	0.43332666	TON	lure	n/a	n/a	n/a	1
145.15	0.616658179	TRACKER	lure	n/a	n/a	n/a	1
145.767	0.616659199	BEDSPREAD	lure	n/a	n/a	n/a	1
146.384	0.616658108	HABITATION	lure	n/a	n/a	n/a	1
147	0.583324938	GLACIER	lure	n/a	n/a	n/a	1
147.584	0.716657484	DISCLAIMER	lure	n/a	n/a	n/a	1
148.3	0.516711147	BOWEL	lure	n/a	n/a	n/a	1
148.817	1.016606165	PLUM	fruit	n/a	n/a	2	0
149.834	0.549991604	HASTE	lure	n/a	n/a	n/a	1
150.384	0.683319925	MONGOOSE	lure	n/a	n/a	n/a	1
151.067	0.666659853	MATRIX	lure	n/a	n/a	n/a	1
151.733	0.566708293	FINALIST	lure	n/a	n/a	n/a	1
152.3	0.684778656	SOJOURNER	lure	n/a	n/a	n/a	1
152.985	0.39853843	VAPOR	lure	n/a	n/a	n/a	1
153.384	0.616609361	CASSETTE	lure	n/a	n/a	n/a	1
154	0.349994349	HALL	lure	n/a	n/a	n/a	1
154.35	0.349995259	VINEGAR	lure	n/a	n/a	n/a	1
154.7	0.766662965	SACCHARIN	lure	n/a	n/a	n/a	1
155.467	0.783320844	TEAMSTER	lure	n/a	n/a	n/a	1
156.25	0.699992571	GRANDAD	lure	n/a	n/a	n/a	1
156.95	0.683320318	SACRAMENT	lure	n/a	n/a	n/a	1
157.633	0.616659838	HAMMER	short	n/a	n/a	n/a	1
158.25	0.566656616	STAKEOUT	lure	n/a	n/a	n/a	1
158.817	0.716660884	RELIANCE	lure	n/a	n/a	n/a	1
159.533	0.733321803	NUMERATION	lure	n/a	n/a	n/a	1
160.267	0.583321661	ARTERY	lure	n/a	n/a	n/a	1
160.85	0.583331814	SURCHARGE	lure	n/a	n/a	n/a	1
161.433	0.416654802	GENIE	lure	n/a	n/a	n/a	1
161.85	0.383331275	TEA	lure	n/a	n/a	n/a	1
162.233	0.416657577	NYLON	lure	n/a	n/a	n/a	1
162.65	0.39999517	BOOKSHELF	lure	n/a	n/a	n/a	1
163.05	0.733325011	BLOKE	lure	n/a	n/a	n/a	1
163.783	0.333330746	HYSTERIA	lure	n/a	n/a	n/a	1
164.117	0.666658817	NUANCE	lure	n/a	n/a	n/a	1
164.783	0.749989785	PLASMA	lure	n/a	n/a	n/a	1
165.533	0.399989453	POTTERY	lure	n/a	n/a	n/a	1
165.933	2.016646703	SPONGE	long	n/a	n/a	n/a	1
167.95	0.566651915	PIXIE	lure	n/a	n/a	n/a	1
168.517	0.599995336	INHABITANT	lure	n/a	n/a	n/a	1
169.117	0.699991085	FOYER	lure	n/a	n/a	n/a	1
169.817	0.699992711	JERSEY	lure	n/a	n/a	n/a	1
170.517	0.619263696	SWINGER	lure	n/a	n/a	n/a	1
171.136	0.514054509	TERRIER	lure	n/a	n/a	n/a	1
171.65	0.533324316	CHIMNEY	lure	n/a	n/a	n/a	1
172.183	0.516657437	FELICITY	lure	n/a	n/a	n/a	1
172.7	0.649988775	MARLIN	lure	n/a	n/a	n/a	1
173.35	0.500045109	PREPAYMENT	lure	n/a	n/a	n/a	1
173.85	0.616611384	SMOCK	lure	n/a	n/a	n/a	1
174.467	2.049970866	FRONTIER	long	n/a	n/a	n/a	1
176.516	0.599988479	GURU	lure	n/a	n/a	n/a	1
177.116	0.549994629	RAILHEAD	lure	n/a	n/a	n/a	1
177.666	0.533328273	WETTER	lure	n/a	n/a	n/a	1
178.2	0.749986261	DOC	lure	n/a	n/a	n/a	1
178.95	0.466664784	PROBATE	lure	n/a	n/a	n/a	1
179.416	0.349990342	DAISY	lure	n/a	n/a	n/a	1
179.766	0.499993368	WAISTBAND	lure	n/a	n/a	n/a	1
180.266	0.316662102	CALORIE	lure	n/a	n/a	n/a	1
180.583	0.500330487	PIZZA	lure	n/a	n/a	n/a	1
181.083	0.516325714	POOCH	lure	n/a	n/a	n/a	1
181.6	0.483323734	CORNCOB	lure	n/a	n/a	n/a	1
182.083	0.533325916	RIVERBED	lure	n/a	n/a	n/a	1
182.616	0.616664932	TIMBER	short	n/a	n/a	n/a	1
183.233	0.752689858	EARTHWORM	lure	n/a	n/a	n/a	1
183.986	0.663951758	MAGISTRATE	lure	n/a	n/a	n/a	1
184.65	0.633328904	PARENTHOOD	lure	n/a	n/a	n/a	1
185.283	0.649986541	BUN	lure	n/a	n/a	n/a	1
185.933	0.53332592	MOCKERY	lure	n/a	n/a	n/a	1
186.466	0.583327808	CASHMERE	lure	n/a	n/a	n/a	1
187.05	0.783324797	FIREMEN	lure	n/a	n/a	n/a	1
187.833	0.383326237	LANDFALL	lure	n/a	n/a	n/a	1
188.216	0.733327036	LOYALTY	lure	n/a	n/a	n/a	1
188.95	0.433328022	DARTBOARD	lure	n/a	n/a	n/a	1
189.383	0.466653685	TIGER	lure	n/a	n/a	n/a	1
189.85	0.516659952	PARAPHRASE	lure	n/a	n/a	n/a	1
190.366	0.516659796	PACESETTER	lure	n/a	n/a	n/a	1
190.883	0.616664702	ROOT	short	n/a	n/a	n/a	1
191.5	0.53374452	TRAPEZE	lure	n/a	n/a	n/a	1
192.033	0.399569684	FAIRGROUND	lure	n/a	n/a	n/a	1
192.433	0.749995362	MAIDENHEAD	lure	n/a	n/a	n/a	1
193.183	0.333328314	FARMSTEAD	lure	n/a	n/a	n/a	1
193.516	0.733325011	PARCEL	lure	n/a	n/a	n/a	1
194.25	0.616656119	ALLEYWAY	lure	n/a	n/a	n/a	1
194.866	0.733319982	SCRUPLE	lure	n/a	n/a	n/a	1
195.6	0.550041703	INDIGENCE	lure	n/a	n/a	n/a	1
196.15	0.566609629	JAR	lure	n/a	n/a	n/a	1
196.716	0.33338057	BOOKCASE	lure	n/a	n/a	n/a	1
197.05	0.735663417	LUCIDITY	lure	n/a	n/a	n/a	1
197.785	0.564268515	PROFUSION	lure	n/a	n/a	n/a	1
198.35	0.649993604	HAIRPIN	lure	n/a	n/a	n/a	1
199	2.016642561	DITCH	long	n/a	n/a	n/a	1
201.016	0.599984769	SMASHER	lure	n/a	n/a	n/a	1
201.616	0.633327277	APOTHECARY	lure	n/a	n/a	n/a	1
202.249	0.533328257	RECOVERY	lure	n/a	n/a	n/a	1
202.783	0.683319341	CINEMA	lure	n/a	n/a	n/a	1
203.466	0.486813553	INNING	lure	n/a	n/a	n/a	1
203.953	0.496512409	CORONER	lure	n/a	n/a	n/a	1
204.449	0.416657853	LIVESTOCK	lure	n/a	n/a	n/a	1
204.866	0.499996821	MALLARD	lure	n/a	n/a	n/a	1
205.366	0.450051093	SALESLADY	lure	n/a	n/a	n/a	1
205.816	0.483263126	POSTSCRIPT	lure	n/a	n/a	n/a	1
206.299	0.466660699	URETHRA	lure	n/a	n/a	n/a	1
206.766	2.016645609	CURB	long	n/a	n/a	n/a	1
208.783	0.749983852	PARKA	lure	n/a	n/a	n/a	1
209.533	0.616701842	CRUDE	lure	n/a	n/a	n/a	1
210.149	0.616615574	PHARMACIST	lure	n/a	n/a	n/a	1
210.766	0.716700351	CHOICE	lure	n/a	n/a	n/a	1
211.483	0.683285881	ADOPTION	lure	n/a	n/a	n/a	1
212.166	0.549989935	ARBITRATOR	lure	n/a	n/a	n/a	1
212.716	0.633325376	AUDITORIUM	lure	n/a	n/a	n/a	1
213.349	0.46665814	VISITOR	lure	n/a	n/a	n/a	1
213.816	0.366663175	COLORATION	lure	n/a	n/a	n/a	1
214.183	0.516659955	MISFORTUNE	lure	n/a	n/a	n/a	1
214.699	0.59998833	YEARBOOK	lure	n/a	n/a	n/a	1
215.299	1.016658942	MULBERRY	fruit	675	2	2	1
216.316	0.487128148	OBJECTION	lure	n/a	n/a	n/a	1
216.803	0.462859257	TURBINE	lure	n/a	n/a	n/a	1
217.266	0.749987538	NIGHTSHADE	lure	n/a	n/a	n/a	1
218.016	0.499989585	HYENA	lure	n/a	n/a	n/a	1
218.516	0.799993292	PASTOR	lure	n/a	n/a	n/a	1
219.316	0.383325517	HANDBAG	lure	n/a	n/a	n/a	1
219.699	0.383330221	JUNIPER	lure	n/a	n/a	n/a	1
220.083	0.699993098	GALLUP	lure	n/a	n/a	n/a	1
220.783	0.533324522	CAPE	lure	n/a	n/a	n/a	1
221.316	0.716652005	EMPLOYMENT	lure	n/a	n/a	n/a	1
222.033	0.699990732	GLYCEROL	lure	n/a	n/a	n/a	1
222.733	0.716794019	BEAUTICIAN	lure	n/a	n/a	n/a	1
223.449	0.333191673	BARROW	lure	n/a	n/a	n/a	1
223.783	0.333328922	OREGANO	lure	n/a	n/a	n/a	1
224.116	0.433331358	SHORTCAKE	lure	n/a	n/a	n/a	1
224.549	0.449990386	DOWNING	lure	n/a	n/a	n/a	1
224.999	0.583325036	GRADER	lure	n/a	n/a	n/a	1
225.582	0.699997511	PARSLEY	lure	n/a	n/a	n/a	1
226.282	0.583318473	POT	lure	n/a	n/a	n/a	1
226.866	n/a	BOTANIST	lure	n/a	n/a	n/a	1
238.033	0.583059665	CANOE	lure	n/a	n/a	n/a	1
238.616	0.466663469	BRIDGEWORK	lure	n/a	n/a	n/a	1
239.082	0.399993302	NOBLEMAN	lure	n/a	n/a	n/a	1
239.482	0.59999331	ROADSTER	lure	n/a	n/a	n/a	1
240.082	0.74999293	PROVINCE	lure	n/a	n/a	n/a	1
240.832	0.583321004	MUDSLINGER	lure	n/a	n/a	n/a	1
241.416	0.616659124	HESITATION	lure	n/a	n/a	n/a	1
242.032	2.016640759	FRONTIER	long	n/a	n/a	n/a	1
244.049	0.399996901	RADIANCE	lure	n/a	n/a	n/a	1
244.449	0.500076893	SOLOIST	lure	n/a	n/a	n/a	1
244.949	0.733239803	SACHET	lure	n/a	n/a	n/a	1
245.682	0.683320038	SEAMANSHIP	lure	n/a	n/a	n/a	1
246.366	0.433331213	SKETCHBOOK	lure	n/a	n/a	n/a	1
246.799	0.716656142	BASKETWORK	lure	n/a	n/a	n/a	1
247.516	0.649988951	DESK	lure	n/a	n/a	n/a	1
248.166	0.666654901	MOUSETRAP	lure	n/a	n/a	n/a	1
248.832	0.566703205	SIMPLETON	lure	n/a	n/a	n/a	1
249.399	0.583284551	MUTT	lure	n/a	n/a	n/a	1
249.982	0.466661867	ANATOMY	lure	n/a	n/a	n/a	1
250.449	0.649989393	WALLET	short	n/a	n/a	n/a	1
251.099	0.316665457	CONTINUUM	lure	n/a	n/a	n/a	1
251.415	0.316656307	PARSON	lure	n/a	n/a	n/a	1
251.732	0.51665908	MOTORIST	lure	n/a	n/a	n/a	1
252.249	0.516662493	ADJUSTMENT	lure	n/a	n/a	n/a	1
252.765	0.499996898	WORKHOUSE	lure	n/a	n/a	n/a	1
253.265	0.416658053	STOPOVER	lure	n/a	n/a	n/a	1
253.682	0.516658102	HUMILITY	lure	n/a	n/a	n/a	1
254.199	0.500046539	CHESSBOARD	lure	n/a	n/a	n/a	1
254.699	0.599990697	PRIMER	lure	n/a	n/a	n/a	1
255.299	0.566608858	TEACAKE	lure	n/a	n/a	n/a	1
255.865	0.516660247	AMBITION	lure	n/a	n/a	n/a	1
256.382	0.416656659	SLANDERER	lure	n/a	n/a	n/a	1
256.799	0.533370071	HOBBYHORSE	lure	n/a	n/a	n/a	1
257.332	0.749951737	SALESMEN	lure	n/a	n/a	n/a	1
258.082	0.483322758	GEEZER	lure	n/a	n/a	n/a	1
258.565	1.01717428	CANTELOUPE	fruit	850	2	2	1
259.583	0.716137133	REFUGE	lure	n/a	n/a	n/a	1
260.299	0.483330245	GRAVEL	lure	n/a	n/a	n/a	1
260.782	0.416655496	RAMBLER	lure	n/a	n/a	n/a	1
261.199	0.600087608	TENT	lure	n/a	n/a	n/a	1
261.799	0.699895072	BEDTIME	lure	n/a	n/a	n/a	1
262.499	0.74999574	SCRUFF	lure	n/a	n/a	n/a	1
263.249	0.433325215	ARCADE	lure	n/a	n/a	n/a	1
263.682	0.533327503	MORTUARY	lure	n/a	n/a	n/a	1
264.215	0.583320966	POSSESSOR	lure	n/a	n/a	n/a	1
264.799	0.34999329	WASHBOARD	lure	n/a	n/a	n/a	1
265.149	0.533326058	PASSWORD	lure	n/a	n/a	n/a	1
265.682	0.687843365	SOLUTION	lure	n/a	n/a	n/a	1
266.37	0.378813746	THUMBTACK	lure	n/a	n/a	n/a	1
266.749	0.64999044	TIMBER	short	n/a	n/a	n/a	1
267.399	0.716657039	DELUGE	lure	n/a	n/a	n/a	1
268.115	0.633321625	RENOVATION	lure	n/a	n/a	n/a	1
268.749	0.583326839	SPIRE	lure	n/a	n/a	n/a	1
269.332	0.687798732	En/aOLLMENT	lure	n/a	n/a	n/a	1
270.02	0.695564198	CHURCH	lure	n/a	n/a	n/a	1
270.715	0.36661599	ABSORPTION	lure	n/a	n/a	n/a	1
271.082	0.349997728	HAT	lure	n/a	n/a	n/a	1
271.432	0.499987165	RADIOLOGY	lure	n/a	n/a	n/a	1
271.932	0.71670785	RADIOGRAPH	lure	n/a	n/a	n/a	1
272.649	0.45231351	SOUTHERNER	lure	n/a	n/a	n/a	1
273.101	0.364293906	PANTHEON	lure	n/a	n/a	n/a	1
273.465	0.499989142	LAWMEN	lure	n/a	n/a	n/a	1
273.965	0.483327377	POLYTHEISM	lure	n/a	n/a	n/a	1
274.449	0.449994449	TOAD	lure	n/a	n/a	n/a	1
274.898	1.016652804	STRAWBERRY	fruit	636	2	2	1
275.915	0.766662369	EARPLUG	lure	n/a	n/a	n/a	1
276.682	0.583318701	CHECKER	lure	n/a	n/a	n/a	1
277.265	0.58332923	FLAW	lure	n/a	n/a	n/a	1
277.848	0.599995094	SLANG	lure	n/a	n/a	n/a	1
278.448	0.399993592	BRAT	lure	n/a	n/a	n/a	1
278.848	0.516653631	GASTRONOMY	lure	n/a	n/a	n/a	1
279.365	0.599992042	TREASURY	lure	n/a	n/a	n/a	1
279.965	0.566664418	NUTSHELL	lure	n/a	n/a	n/a	1
280.532	0.71665456	DECADENCE	lure	n/a	n/a	n/a	1
281.248	0.45003702	LADYBUG	lure	n/a	n/a	n/a	1
281.698	0.699947318	MEDIATION	lure	n/a	n/a	n/a	1
282.398	0.5020055	DIGRESSION	lure	n/a	n/a	n/a	1
282.9	0.614645858	CARD	short	n/a	n/a	n/a	1
283.515	0.349995515	EMBOLISM	lure	n/a	n/a	n/a	1
283.865	0.516662635	COOLANT	lure	n/a	n/a	n/a	1
284.382	0.31665714	FOLKLORIST	lure	n/a	n/a	n/a	1
284.698	0.416663126	AUTOCRAT	lure	n/a	n/a	n/a	1
285.115	0.53332588	BOMBSHELL	lure	n/a	n/a	n/a	1
285.648	0.566661516	MEMOIR	lure	n/a	n/a	n/a	1
286.215	0.5666561	SMOKEHOUSE	lure	n/a	n/a	n/a	1
286.782	0.633322625	SNAPDRAGON	lure	n/a	n/a	n/a	1
287.415	0.633326822	BROWNSTONE	lure	n/a	n/a	n/a	1
288.048	0.549995297	LOCKET	lure	n/a	n/a	n/a	1
288.598	0.716657952	CLIQUE	lure	n/a	n/a	n/a	1
289.315	0.466654971	TOENAIL	lure	n/a	n/a	n/a	1
289.782	0.616661376	BROW	lure	n/a	n/a	n/a	1
290.398	0.749993067	DIGIT	lure	n/a	n/a	n/a	1
291.148	2.016635964	DITCH	long	n/a	n/a	n/a	1
293.165	0.483329433	FINERY	lure	n/a	n/a	n/a	1
293.648	0.36666188	REPROACH	lure	n/a	n/a	n/a	1
294.015	0.566660158	BATTLESHIP	lure	n/a	n/a	n/a	1
294.582	0.399994197	SEAPLANE	lure	n/a	n/a	n/a	1
294.982	0.599988776	GUNBOAT	lure	n/a	n/a	n/a	1
295.582	0.549990726	GYM	lure	n/a	n/a	n/a	1
296.132	0.466662562	CONSTANCY	lure	n/a	n/a	n/a	1
296.598	0.68337148	BRONCO	lure	n/a	n/a	n/a	1
297.282	0.449943865	CILIA	lure	n/a	n/a	n/a	1
297.732	0.433330121	BURLAP	lure	n/a	n/a	n/a	1
298.165	0.766659261	HINDSIGHT	lure	n/a	n/a	n/a	1
298.932	0.499986768	VOODOO	lure	n/a	n/a	n/a	1
299.431	2.016642418	CURB	long	n/a	n/a	n/a	1
301.448	0.349993327	ANALOGY	lure	n/a	n/a	n/a	1
301.798	0.383329887	ALPHABET	lure	n/a	n/a	n/a	1
302.181	0.616655994	BROADCLOTH	lure	n/a	n/a	n/a	1
302.798	0.366664154	MILKMAN	lure	n/a	n/a	n/a	1
303.165	0.666660917	MAMMA	lure	n/a	n/a	n/a	1
303.831	0.683318798	GUZZLER	lure	n/a	n/a	n/a	1
304.515	0.716663043	BURR	lure	n/a	n/a	n/a	1
305.231	0.349994413	BOOKIE	lure	n/a	n/a	n/a	1
305.581	0.749984463	MINNOW	lure	n/a	n/a	n/a	1
306.331	0.433329301	BUMMER	lure	n/a	n/a	n/a	1
306.765	0.699989663	RASH	lure	n/a	n/a	n/a	1
307.465	1.016657277	GOOSEBERRY	fruit	614	2	2	1
308.481	0.749989734	POORHOUSE	lure	n/a	n/a	n/a	1
309.231	0.716654742	WALKER	lure	n/a	n/a	n/a	1
309.948	0.716658582	GRENADE	lure	n/a	n/a	n/a	1
310.665	0.383326316	NYMPH	lure	n/a	n/a	n/a	1
311.048	0.583323577	GRADUATION	lure	n/a	n/a	n/a	1
311.631	0.599997004	MONOLOGIST	lure	n/a	n/a	n/a	1
312.231	0.36665934	CONFECTION	lure	n/a	n/a	n/a	1
312.598	0.61666037	LUMBERJACK	lure	n/a	n/a	n/a	1
313.215	0.483324513	DYNASTY	lure	n/a	n/a	n/a	1
313.698	0.566661566	OBJECTOR	lure	n/a	n/a	n/a	1
314.265	0.449990656	AUDITOR	lure	n/a	n/a	n/a	1
314.715	0.766714336	LOGBOOK	lure	n/a	n/a	n/a	1
315.481	0.616599938	In/aOAD	lure	n/a	n/a	n/a	1
316.098	1.016653069	GRAPE	fruit	733	2	2	1
317.115	0.583328947	CHITCHAT	lure	n/a	n/a	n/a	1
317.698	0.516652957	STEREOTYPE	lure	n/a	n/a	n/a	1
318.215	0.683324777	LEVITY	lure	n/a	n/a	n/a	1
318.898	0.466660025	PLACEBO	lure	n/a	n/a	n/a	1
319.365	0.450037781	SUMMARY	lure	n/a	n/a	n/a	1
319.815	0.433289529	MILLENNIUM	lure	n/a	n/a	n/a	1
320.248	0.716652261	DISSENTER	lure	n/a	n/a	n/a	1
320.965	0.733327501	BEAKER	lure	n/a	n/a	n/a	1
321.698	0.466655616	HANDSTAND	lure	n/a	n/a	n/a	1
322.165	0.633330715	STEPSISTER	lure	n/a	n/a	n/a	1
322.798	0.416656459	CHOIR	lure	n/a	n/a	n/a	1
323.215	0.46666333	EDUCATION	lure	n/a	n/a	n/a	1
323.681	0.699992348	POTATO	lure	n/a	n/a	n/a	1
324.381	2.01664007	JAIL	long	n/a	n/a	n/a	1
326.398	0.599987765	DISBELIEF	lure	n/a	n/a	n/a	1
326.998	0.566658746	TREASURER	lure	n/a	n/a	n/a	1
327.564	0.566661068	RELIEF	lure	n/a	n/a	n/a	1
328.131	0.533326322	SWORDPLAY	lure	n/a	n/a	n/a	1
328.664	0.46665492	OBSESSION	lure	n/a	n/a	n/a	1
329.131	0.399996831	ALTO	lure	n/a	n/a	n/a	1
329.531	0.366735998	CHIC	lure	n/a	n/a	n/a	1
329.898	0.666580295	FLIER	lure	n/a	n/a	n/a	1
330.564	0.399998118	NAVEL	lure	n/a	n/a	n/a	1
330.964	0.433324747	MONOGAMY	lure	n/a	n/a	n/a	1
331.398	0.383331209	CASEBOOK	lure	n/a	n/a	n/a	1
331.781	0.333326987	CLERGY	lure	n/a	n/a	n/a	1
332.114	1.016655735	LIME	fruit	757	2	2	1
333.131	0.649990899	BRAZIER	lure	n/a	n/a	n/a	1
333.781	0.499996464	AFTERGLOW	lure	n/a	n/a	n/a	1
334.281	0.449987086	AGENT	lure	n/a	n/a	n/a	1
334.731	0.400044557	FORESIGHT	lure	n/a	n/a	n/a	1
335.131	0.66660794	DEFENDANT	lure	n/a	n/a	n/a	1
335.798	0.399998271	JUBILATION	lure	n/a	n/a	n/a	1
336.198	0.633322357	RITUALISM	lure	n/a	n/a	n/a	1
336.831	0.416660256	VIOLIN	lure	n/a	n/a	n/a	1
337.248	0.599992754	LESSON	lure	n/a	n/a	n/a	1
337.848	0.466666161	CRATER	lure	n/a	n/a	n/a	1
338.314	0.600047416	ALDERMEN	lure	n/a	n/a	n/a	1
338.914	0.416599141	CUTBACK	lure	n/a	n/a	n/a	1
339.331	0.499996068	DUSTER	lure	n/a	n/a	n/a	1
339.831	0.583325672	PERMAFROST	lure	n/a	n/a	n/a	1
340.414	0.616660705	ROOT	short	n/a	n/a	n/a	1
341.031	0.616658786	FOOTSTOOL	lure	n/a	n/a	n/a	1
341.648	0.683324185	STALKER	lure	n/a	n/a	n/a	1
342.331	0.69998635	PLANET	lure	n/a	n/a	n/a	1
343.031	0.399999409	BARRACUDA	lure	n/a	n/a	n/a	1
343.431	0.616701534	TELETYPE	lure	n/a	n/a	n/a	1
344.048	0.500005932	TROTH	lure	n/a	n/a	n/a	1
344.548	0.666594762	EPIGRAPH	lure	n/a	n/a	n/a	1
345.214	0.499993718	ANALYST	lure	n/a	n/a	n/a	1
345.714	0.416661165	RESURGENCE	lure	n/a	n/a	n/a	1
346.131	0.702756434	SHAKEDOWN	lure	n/a	n/a	n/a	1
346.834	0.613895263	TRESPASSER	lure	n/a	n/a	n/a	1
347.448	0.483322989	LAWN	lure	n/a	n/a	n/a	1
347.931	0.716662336	TORCHLIGHT	lure	n/a	n/a	n/a	1
348.648	0.616654838	COUNCIL	short	n/a	n/a	n/a	1
349.264	0.633324999	WHOOP	lure	n/a	n/a	n/a	1
349.897	0.550050899	SUFFRAGE	lure	n/a	n/a	n/a	1
350.448	0.599933492	JEOPARDY	lure	n/a	n/a	n/a	1
351.047	0.416660093	ORE	lure	n/a	n/a	n/a	1
351.464	0.50004639	TOPSOIL	lure	n/a	n/a	n/a	1
351.964	0.749942608	BANGLE	lure	n/a	n/a	n/a	1
352.714	0.433321513	APATHY	lure	n/a	n/a	n/a	1
353.147	0.499994992	TADPOLE	lure	n/a	n/a	n/a	1
353.647	0.499993315	DEFLECTION	lure	n/a	n/a	n/a	1
354.147	0.599994191	MARKDOWN	lure	n/a	n/a	n/a	1
354.747	0.63332037	MENAGERIE	lure	n/a	n/a	n/a	1
355.381	0.566663847	SNAIL	lure	n/a	n/a	n/a	1
355.947	0.366658735	RENOWN	lure	n/a	n/a	n/a	1
356.314	0.58332627	DEPENDENCY	lure	n/a	n/a	n/a	1
356.897	0.616662131	SAWDUST	short	n/a	n/a	n/a	1
357.514	0.683323046	RETAKE	lure	n/a	n/a	n/a	1
358.197	0.449988431	TAILWIND	lure	n/a	n/a	n/a	1
358.647	0.533326333	CONGRUITY	lure	n/a	n/a	n/a	1
359.181	0.599991397	MINORITY	lure	n/a	n/a	n/a	1
359.781	0.599998617	GENTLEMAN	lure	n/a	n/a	n/a	1
360.381	0.316662567	WILDCAT	lure	n/a	n/a	n/a	1
360.697	0.583322144	DICTATOR	lure	n/a	n/a	n/a	1
361.281	0.549990834	PERIPHERY	lure	n/a	n/a	n/a	1
361.831	0.31666263	HAG	lure	n/a	n/a	n/a	1
362.147	0.716662102	FANLIGHT	lure	n/a	n/a	n/a	1
362.864	0.449986857	MEATBALL	lure	n/a	n/a	n/a	1
363.314	0.7166568	CHOCOLATE	lure	n/a	n/a	n/a	1
364.031	0.649993819	WORLD	lure	n/a	n/a	n/a	1
364.681	0.466661158	AGGRESSION	lure	n/a	n/a	n/a	1
365.147	2.016642756	LETTER	long	n/a	n/a	n/a	1
367.164	0.366655492	WAGTAIL	lure	n/a	n/a	n/a	1
367.531	0.649996612	ATHLETE	lure	n/a	n/a	n/a	1
368.181	0.349991435	CLAMPDOWN	lure	n/a	n/a	n/a	1
368.531	0.699994022	TANTRUM	lure	n/a	n/a	n/a	1
369.231	0.683321437	DISSONANCE	lure	n/a	n/a	n/a	1
369.914	0.533323353	PROMPTER	lure	n/a	n/a	n/a	1
370.447	0.483327132	LATCHKEY	lure	n/a	n/a	n/a	1
370.931	0.433331331	DEPTH	lure	n/a	n/a	n/a	1
371.364	0.416664243	PREMIERE	lure	n/a	n/a	n/a	1
371.781	0.716652636	BEEFEATER	lure	n/a	n/a	n/a	1
372.497	0.649990322	CONFESSOR	lure	n/a	n/a	n/a	1
373.147	0.549993324	TOPCOAT	lure	n/a	n/a	n/a	1
373.697	1.016651103	STRAWBERRY	fruit	646	2	2	1
374.714	0.583325357	PIER	lure	n/a	n/a	n/a	1
375.297	0.633330518	FOREIGNER	lure	n/a	n/a	n/a	1
375.93	0.383365079	AMOEBA	lure	n/a	n/a	n/a	1
376.314	0.383288011	TRADER	lure	n/a	n/a	n/a	1
376.697	0.516662758	EGO	lure	n/a	n/a	n/a	1
377.214	0.449988454	BISHOP	lure	n/a	n/a	n/a	1
377.664	0.733328978	CATTLEMEN	lure	n/a	n/a	n/a	1
378.397	0.316657097	MADWOMAN	lure	n/a	n/a	n/a	1
378.714	0.533388172	BOWMAN	lure	n/a	n/a	n/a	1
379.247	0.383265479	SHOELACE	lure	n/a	n/a	n/a	1
379.63	0.699991696	VANE	lure	n/a	n/a	n/a	1
380.33	0.620728082	GLAMOR	lure	n/a	n/a	n/a	1
380.951	0.695920963	LANDHOLDER	lure	n/a	n/a	n/a	1
381.647	0.766659521	DEDICATION	lure	n/a	n/a	n/a	1
382.414	2.01663893	DOME	long	n/a	n/a	n/a	1
384.43	0.716695273	FRAGILITY	lure	n/a	n/a	n/a	1
385.147	0.483284525	READOUT	lure	n/a	n/a	n/a	1
385.63	0.500019315	REPUTE	lure	n/a	n/a	n/a	1
386.13	0.533303352	SOCIALITY	lure	n/a	n/a	n/a	1
386.664	0.483329771	RIVERVIEW	lure	n/a	n/a	n/a	1
387.147	0.4499922	ADJUNCT	lure	n/a	n/a	n/a	1
387.597	0.650028998	FAILURE	lure	n/a	n/a	n/a	1
388.247	0.699950253	OPIATE	lure	n/a	n/a	n/a	1
388.947	0.699989282	SPECTRUM	lure	n/a	n/a	n/a	1
389.647	0.583378208	PLAYBILL	lure	n/a	n/a	n/a	1
390.23	0.683273445	SPATULA	lure	n/a	n/a	n/a	1
390.914	2.016639581	ELBOW	long	n/a	n/a	n/a	1
392.93	0.616698304	BURNER	lure	n/a	n/a	n/a	1
393.547	0.683285245	KNOBBY	lure	n/a	n/a	n/a	1
394.23	0.533323384	SANDMAN	lure	n/a	n/a	n/a	1
394.764	0.333328775	CONTOUR	lure	n/a	n/a	n/a	1
395.097	0.366662425	MISCALL	lure	n/a	n/a	n/a	1
395.464	0.499993163	PORPOISE	lure	n/a	n/a	n/a	1
395.964	0.616660704	LOOKUP	lure	n/a	n/a	n/a	1
396.58	0.604435528	FOLLY	lure	n/a	n/a	n/a	1
397.185	0.412257176	BOUNDARY	lure	n/a	n/a	n/a	1
397.597	0.516659481	ACTIVITY	lure	n/a	n/a	n/a	1
398.114	0.683281658	HEADSTAND	lure	n/a	n/a	n/a	1
398.797	0.599993667	TANG	lure	n/a	n/a	n/a	1
399.397	0.616660851	HAMMER	short	n/a	n/a	n/a	1
400.013	0.466654295	RIBBON	lure	n/a	n/a	n/a	1
400.48	0.733323396	ECOLOGY	lure	n/a	n/a	n/a	1
401.213	0.416663248	ANGEL	lure	n/a	n/a	n/a	1
401.63	0.433325498	ARCHETYPE	lure	n/a	n/a	n/a	1
402.063	0.716657017	DILIGENCE	lure	n/a	n/a	n/a	1
402.78	0.549995156	DEVIANCE	lure	n/a	n/a	n/a	1
403.33	0.633328292	DEFENDER	lure	n/a	n/a	n/a	1
403.963	0.599989346	DISPERSAL	lure	n/a	n/a	n/a	1
404.563	0.416660955	POLICEMEN	lure	n/a	n/a	n/a	1
404.98	0.533322394	TREATMENT	lure	n/a	n/a	n/a	1
405.513	0.599992042	PSYCHO	lure	n/a	n/a	n/a	1
406.113	0.749993522	FLAGPOLE	lure	n/a	n/a	n/a	1
406.863	0.599995177	HOLOGRAPH	lure	n/a	n/a	n/a	1
407.463	0.733320001	CAPACITY	lure	n/a	n/a	n/a	1
408.197	0.616657179	COLUMN	short	n/a	n/a	n/a	1
408.813	0.533327028	TRAIT	lure	n/a	n/a	n/a	1
409.347	0.316659945	BOTTLENECK	lure	n/a	n/a	n/a	1
409.663	0.6166612	ENCHANTER	lure	n/a	n/a	n/a	1
410.28	0.433383057	SHEEPDOG	lure	n/a	n/a	n/a	1
410.713	0.666598589	STRIFE	lure	n/a	n/a	n/a	1
411.38	0.416662899	AUTOCRACY	lure	n/a	n/a	n/a	1
411.797	0.366666765	GUNPLAY	lure	n/a	n/a	n/a	1
412.163	0.399994235	WRANGLER	lure	n/a	n/a	n/a	1
412.563	0.416661275	MANHOOD	lure	n/a	n/a	n/a	1
412.98	0.350367469	SANDSTORM	lure	n/a	n/a	n/a	1
413.33	0.582951783	FAITH	lure	n/a	n/a	n/a	1
413.913	0.616653149	LOLLIPOP	lure	n/a	n/a	n/a	1
414.53	0.649993543	LATCH	lure	n/a	n/a	n/a	1
415.18	0.433330759	IGNITION	lure	n/a	n/a	n/a	1
415.613	0.316659133	SURVIVAL	lure	n/a	n/a	n/a	1
415.93	0.616659626	ROAD	short	n/a	n/a	n/a	1
416.547	0.549988748	LAYOFF	lure	n/a	n/a	n/a	1
417.097	0.683327796	FOOTBRIDGE	lure	n/a	n/a	n/a	1
417.78	0.466660652	PAYMASTER	lure	n/a	n/a	n/a	1
418.247	0.733323027	SHRUB	lure	n/a	n/a	n/a	1
418.98	0.67113282	MISSY	lure	n/a	n/a	n/a	1
419.651	0.362183172	COMBUSTION	lure	n/a	n/a	n/a	1
420.013	0.716697689	TANGENCY	lure	n/a	n/a	n/a	1
420.73	0.750007329	LOADER	lure	n/a	n/a	n/a	1
421.48	0.666601346	BOXCAR	lure	n/a	n/a	n/a	1
422.147	0.633323313	COUSIN	lure	n/a	n/a	n/a	1
422.78	0.466660211	ESTEEM	lure	n/a	n/a	n/a	1
423.246	0.499999868	MOONSHINE	lure	n/a	n/a	n/a	1
423.746	0.633318219	COLLATERAL	lure	n/a	n/a	n/a	1
424.38	2.016647193	SPONGE	long	n/a	n/a	n/a	1
426.396	0.466652853	DEFINITION	lure	n/a	n/a	n/a	1
426.863	0.499993671	BRUSHFIRE	lure	n/a	n/a	n/a	1
427.363	0.483331783	HEADER	lure	n/a	n/a	n/a	1
427.846	0.683322677	WARMTH	lure	n/a	n/a	n/a	1
428.53	0.699986977	PYRAMID	lure	n/a	n/a	n/a	1
429.23	0.766662336	VIBRANCY	lure	n/a	n/a	n/a	1
429.996	0.516653073	MADHOUSE	lure	n/a	n/a	n/a	1
430.513	0.649994405	FINDER	lure	n/a	n/a	n/a	1
431.163	0.683324264	PRAT	lure	n/a	n/a	n/a	1
431.846	0.499991751	ROOD	lure	n/a	n/a	n/a	1
432.346	0.61666337	MUZZLE	short	n/a	n/a	n/a	1
432.963	0.399994474	DUPLICITY	lure	n/a	n/a	n/a	1
433.363	0.433327206	EXPERIMENT	lure	n/a	n/a	n/a	1
433.796	0.483379783	CLIENT	lure	n/a	n/a	n/a	1
434.28	0.599933057	SYNDROME	lure	n/a	n/a	n/a	1
434.88	0.733322693	BOATLOAD	lure	n/a	n/a	n/a	1
435.613	0.633331687	OBEDIENCE	lure	n/a	n/a	n/a	1
436.246	0.583318058	HANDYMEN	lure	n/a	n/a	n/a	1
436.83	0.483333698	SOCIALITE	lure	n/a	n/a	n/a	1
437.313	0.383328625	PROJECT	lure	n/a	n/a	n/a	1
437.696	0.549989191	WAYSIDE	lure	n/a	n/a	n/a	1
438.246	0.416664649	ORCHID	lure	n/a	n/a	n/a	1
438.663	0.38336288	UNTRUTH	lure	n/a	n/a	n/a	1
439.046	0.566680888	INDICATION	lure	n/a	n/a	n/a	1
439.613	0.633262415	COURIER	lure	n/a	n/a	n/a	1
440.246	0.649989976	TEARJERKER	lure	n/a	n/a	n/a	1
440.896	2.016647126	FOREST	long	n/a	n/a	n/a	1
442.913	0.516653136	DRAMATIST	lure	n/a	n/a	n/a	1
443.43	0.549991502	GAZETTE	lure	n/a	n/a	n/a	1
443.98	0.383369331	OVERFLOW	lure	n/a	n/a	n/a	1
444.363	0.466626894	HANDFUL	lure	n/a	n/a	n/a	1
444.83	0.566658507	FABRIC	lure	n/a	n/a	n/a	1
445.396	0.533319464	ASPIRATION	lure	n/a	n/a	n/a	1
445.93	0.4499971	OUTPOURING	lure	n/a	n/a	n/a	1
446.38	0.333330451	SUBSTRATE	lure	n/a	n/a	n/a	1
446.713	0.716658398	PHONOGRAPH	lure	n/a	n/a	n/a	1
447.43	0.349988806	SUFFIX	lure	n/a	n/a	n/a	1
447.779	0.383379637	HICKORY	lure	n/a	n/a	n/a	1
448.163	0.583275759	PROTEST	lure	n/a	n/a	n/a	1
448.746	0.399995056	ZEPPELIN	lure	n/a	n/a	n/a	1
449.146	2.016644072	DIRT	long	n/a	n/a	n/a	1
451.163	0.383323891	GOBLET	lure	n/a	n/a	n/a	1
451.546	0.399993985	EMPATHY	lure	n/a	n/a	n/a	1
451.946	0.599996545	CADENCE	lure	n/a	n/a	n/a	1
452.546	0.35014387	DENTISTRY	lure	n/a	n/a	n/a	1
452.896	0.766505141	RIGIDITY	lure	n/a	n/a	n/a	1
453.663	0.366657551	STICKER	lure	n/a	n/a	n/a	1
454.029	0.499994603	PILLBOX	lure	n/a	n/a	n/a	1
454.529	0.699989261	BOTANY	lure	n/a	n/a	n/a	1
455.229	0.666665308	GENERALITY	lure	n/a	n/a	n/a	1
455.896	0.383324039	COUPLET	lure	n/a	n/a	n/a	1
456.279	0.549990902	DEITY	lure	n/a	n/a	n/a	1
456.829	0.466658505	BRICKYARD	lure	n/a	n/a	n/a	1
457.296	0.783323394	COURTIER	lure	n/a	n/a	n/a	1
458.079	0.533332236	RESISTANCE	lure	n/a	n/a	n/a	1
458.613	0.466654712	HERTZ	lure	n/a	n/a	n/a	1
459.079	0.549991556	COOKBOOK	lure	n/a	n/a	n/a	1
459.629	0.699994067	HAIRPIECE	lure	n/a	n/a	n/a	1
460.329	0.749986487	WHEELCHAIR	lure	n/a	n/a	n/a	1
461.079	0.733323175	OPTICIAN	lure	n/a	n/a	n/a	1
461.813	0.69999795	BOASTER	lure	n/a	n/a	n/a	1
462.513	0.316660058	WHIZ	lure	n/a	n/a	n/a	1
462.829	0.333323989	BAGFUL	lure	n/a	n/a	n/a	1
463.163	0.63332802	BEAGLE	lure	n/a	n/a	n/a	1
463.796	0.649988875	SCARECROW	lure	n/a	n/a	n/a	1
464.446	0.333327953	JUBILEE	lure	n/a	n/a	n/a	1
464.779	n/a	ARTICHOKE	lure	n/a	n/a	n/a	1