onset	duration	stim	cond	RT	resp	cresp	acc
4.089	0.383332345	SOLOIST	lure	n/a	n/a	n/a	1
4.473	0.683362039	BIGAMIST	lure	n/a	n/a	n/a	1
5.156	0.600012069	ZEAL	lure	n/a	n/a	n/a	1
5.756	0.733312743	JUNCTION	lure	n/a	n/a	n/a	1
6.489	0.568945359	TEACUP	lure	n/a	n/a	n/a	1
7.058	0.517561156	LOUDMOUTH	lure	n/a	n/a	n/a	1
7.576	0.480091507	TSUNAMI	lure	n/a	n/a	n/a	1
8.056	0.616720585	PERMIT	short	n/a	n/a	n/a	1
8.673	0.716594212	CHEETAH	lure	n/a	n/a	n/a	1
9.389	0.566656847	TWISTER	lure	n/a	n/a	n/a	1
9.956	0.549993494	AIRSPEED	lure	n/a	n/a	n/a	1
10.506	0.316707692	SUBMERSION	lure	n/a	n/a	n/a	1
10.823	0.349948847	FUNERAL	lure	n/a	n/a	n/a	1
11.173	0.500048638	IMPORT	lure	n/a	n/a	n/a	1
11.673	0.699936345	SWEATER	lure	n/a	n/a	n/a	1
12.373	0.766654819	PAINTBRUSH	lure	n/a	n/a	n/a	1
13.139	0.733369733	HORDE	lure	n/a	n/a	n/a	1
13.873	0.666670672	FESTIVITY	lure	n/a	n/a	n/a	1
14.539	0.399935452	HARDWARE	lure	n/a	n/a	n/a	1
14.939	0.56665697	MUSCLEMAN	lure	n/a	n/a	n/a	1
15.506	0.649992827	BARKEEP	lure	n/a	n/a	n/a	1
16.156	0.616654936	SACK	short	n/a	n/a	n/a	1
16.773	0.616661991	ASTRONAUT	lure	n/a	n/a	n/a	1
17.389	0.536852826	BRUNT	lure	n/a	n/a	n/a	1
17.926	0.596512981	CONDUCTOR	lure	n/a	n/a	n/a	1
18.523	0.40289669	TENOR	lure	n/a	n/a	n/a	1
18.925	0.330376747	HEARSAY	lure	n/a	n/a	n/a	1
19.256	0.54999425	JAB	lure	n/a	n/a	n/a	1
19.806	0.449991907	CLOVE	lure	n/a	n/a	n/a	1
20.256	0.666703444	AVENUE	lure	n/a	n/a	n/a	1
20.923	0.56661291	AMPLITUDE	lure	n/a	n/a	n/a	1
21.489	0.399993429	SUNBEAM	lure	n/a	n/a	n/a	1
21.889	0.44999407	OBLIVION	lure	n/a	n/a	n/a	1
22.339	0.366661907	TRACTION	lure	n/a	n/a	n/a	1
22.706	0.699992603	GLAMOR	lure	n/a	n/a	n/a	1
23.406	0.683322393	EMPIRICISM	lure	n/a	n/a	n/a	1
24.089	0.633371702	FOLKTALE	lure	n/a	n/a	n/a	1
24.722	2.016593669	FLEET	long	n/a	n/a	n/a	1
26.739	0.566654095	RIBOFLAVIN	lure	n/a	n/a	n/a	1
27.306	0.466751107	CONFESSOR	lure	n/a	n/a	n/a	1
27.772	0.483296325	HEADROOM	lure	n/a	n/a	n/a	1
28.256	0.499934154	COBBLER	lure	n/a	n/a	n/a	1
28.756	0.350043734	SCHOOLMATE	lure	n/a	n/a	n/a	1
29.106	0.700259238	FARMYARD	lure	n/a	n/a	n/a	1
29.806	0.499677805	SOMEONE	lure	n/a	n/a	n/a	1
30.306	0.34999516	CUISINE	lure	n/a	n/a	n/a	1
30.656	0.416661545	TEACAKE	lure	n/a	n/a	n/a	1
31.072	0.466655839	DESOLATION	lure	n/a	n/a	n/a	1
31.539	0.549995679	SWITCHBACK	lure	n/a	n/a	n/a	1
32.089	0.433325725	EARPIECE	lure	n/a	n/a	n/a	1
32.522	2.016640879	ATLAS	long	n/a	n/a	n/a	1
34.539	0.649990504	SQUALL	lure	n/a	n/a	n/a	1
35.189	0.599991573	GLACIER	lure	n/a	n/a	n/a	1
35.789	0.633325552	FRIGIDITY	lure	n/a	n/a	n/a	1
36.422	0.733323131	DISPERSION	lure	n/a	n/a	n/a	1
37.156	0.499992846	BATHROBE	lure	n/a	n/a	n/a	1
37.656	0.499992392	TARANTULA	lure	n/a	n/a	n/a	1
38.156	0.466718263	BUREAUCRAT	lure	n/a	n/a	n/a	1
38.622	0.399986269	TURNTABLE	lure	n/a	n/a	n/a	1
39.022	0.38333752	INEPTITUDE	lure	n/a	n/a	n/a	1
39.406	0.516600745	PRUDE	lure	n/a	n/a	n/a	1
39.922	0.48338817	CREDITOR	lure	n/a	n/a	n/a	1
40.406	1.016593378	PLUM	fruit	581	2	2	1
41.422	0.650042805	LIZARD	lure	n/a	n/a	n/a	1
42.072	0.599939292	CONCOURSE	lure	n/a	n/a	n/a	1
42.672	0.549991652	ANTICLIMAX	lure	n/a	n/a	n/a	1
43.222	0.566657268	STEPSISTER	lure	n/a	n/a	n/a	1
43.789	0.400057504	SUMMARY	lure	n/a	n/a	n/a	1
44.189	0.516669748	ALLOTMENT	lure	n/a	n/a	n/a	1
44.706	0.549920787	BIB	lure	n/a	n/a	n/a	1
45.255	0.450042439	ARMOR	lure	n/a	n/a	n/a	1
45.706	0.566608877	REALTY	lure	n/a	n/a	n/a	1
46.272	0.416661426	LULLABY	lure	n/a	n/a	n/a	1
46.689	0.499994315	SPUD	lure	n/a	n/a	n/a	1
47.189	0.683322874	IMPOSTOR	lure	n/a	n/a	n/a	1
47.872	0.533399497	EGGHEAD	lure	n/a	n/a	n/a	1
48.406	0.616644292	CHROME	short	n/a	n/a	n/a	1
49.022	0.533267333	MORGUE	lure	n/a	n/a	n/a	1
49.555	0.483325611	PIER	lure	n/a	n/a	n/a	1
50.039	0.56665928	BERK	lure	n/a	n/a	n/a	1
50.605	0.566657249	THERMOSTAT	lure	n/a	n/a	n/a	1
51.172	0.733325797	WHALE	lure	n/a	n/a	n/a	1
51.905	0.4999924	SHOEMAKER	lure	n/a	n/a	n/a	1
52.405	0.516660139	BOARDER	lure	n/a	n/a	n/a	1
52.922	0.48332647	PAGANISM	lure	n/a	n/a	n/a	1
53.405	0.449992318	PLACEBO	lure	n/a	n/a	n/a	1
53.855	0.749990075	TURBINE	lure	n/a	n/a	n/a	1
54.605	0.383326606	CLOSET	lure	n/a	n/a	n/a	1
54.989	0.533416991	CAFETERIA	lure	n/a	n/a	n/a	1
55.522	0.599898402	SOMETHING	lure	n/a	n/a	n/a	1
56.122	0.666659068	SOLACE	lure	n/a	n/a	n/a	1
56.789	2.016644831	SAWDUST	long	n/a	n/a	n/a	1
58.805	0.549989863	SALIVA	lure	n/a	n/a	n/a	1
59.355	0.716704768	EXTREMISM	lure	n/a	n/a	n/a	1
60.072	0.616612156	ASYMMETRY	lure	n/a	n/a	n/a	1
60.689	0.449992772	BREATHER	lure	n/a	n/a	n/a	1
61.139	0.533427559	PIGSKIN	lure	n/a	n/a	n/a	1
61.672	0.716555648	VICEROY	lure	n/a	n/a	n/a	1
62.389	0.733373224	BREADLINE	lure	n/a	n/a	n/a	1
63.122	0.366646521	TRAVELER	lure	n/a	n/a	n/a	1
63.489	0.633289429	ARMBAND	lure	n/a	n/a	n/a	1
64.122	0.583325145	APPEARANCE	lure	n/a	n/a	n/a	1
64.705	0.399995853	TYPEWRITER	lure	n/a	n/a	n/a	1
65.105	0.616723004	SOAP	short	n/a	n/a	n/a	1
65.722	0.550004278	RETRIEVAL	lure	n/a	n/a	n/a	1
66.272	0.649986461	RIVERBOAT	lure	n/a	n/a	n/a	1
66.922	0.583253606	WASP	lure	n/a	n/a	n/a	1
67.505	0.316661314	LIVERWURST	lure	n/a	n/a	n/a	1
67.822	0.433328261	WALNUT	lure	n/a	n/a	n/a	1
68.255	0.666655847	TRANSFER	lure	n/a	n/a	n/a	1
68.922	0.499990735	HEADHUNTER	lure	n/a	n/a	n/a	1
69.422	0.466662935	EXTRACTOR	lure	n/a	n/a	n/a	1
69.888	0.383327954	ANYONE	lure	n/a	n/a	n/a	1
70.272	0.649991792	CAR	lure	n/a	n/a	n/a	1
70.922	0.566658042	COUNTRYMAN	lure	n/a	n/a	n/a	1
71.488	0.649991454	MEMORIAL	lure	n/a	n/a	n/a	1
72.138	0.666657747	LISTENER	lure	n/a	n/a	n/a	1
72.805	0.399994211	WART	lure	n/a	n/a	n/a	1
73.205	0.616659032	CONTRACT	short	n/a	n/a	n/a	1
73.822	0.433326672	PAJAMA	lure	n/a	n/a	n/a	1
74.255	0.69999232	IMPORTANCE	lure	n/a	n/a	n/a	1
74.955	0.433321947	BAILIFF	lure	n/a	n/a	n/a	1
75.388	0.516665006	PENTAGRAM	lure	n/a	n/a	n/a	1
75.905	0.699989022	SYMBOL	lure	n/a	n/a	n/a	1
76.605	0.369558867	SHOWROOM	lure	n/a	n/a	n/a	1
76.975	0.580429555	POPCORN	lure	n/a	n/a	n/a	1
77.555	0.549992917	WASHER	lure	n/a	n/a	n/a	1
78.105	0.583367982	DOMINANCE	lure	n/a	n/a	n/a	1
78.688	0.433282497	HATCHWAY	lure	n/a	n/a	n/a	1
79.122	0.616658116	SEMESTER	lure	n/a	n/a	n/a	1
79.738	0.649992273	EXALTATION	lure	n/a	n/a	n/a	1
80.388	0.433322113	NITWIT	lure	n/a	n/a	n/a	1
80.822	0.649995001	ROSEBUSH	lure	n/a	n/a	n/a	1
81.472	2.016642516	CHALK	long	n/a	n/a	n/a	1
83.488	0.64998909	BARN	lure	n/a	n/a	n/a	1
84.138	0.466656596	STYLE	lure	n/a	n/a	n/a	1
84.605	0.483331157	MACHINIST	lure	n/a	n/a	n/a	1
85.088	0.449993206	MONOXIDE	lure	n/a	n/a	n/a	1
85.538	0.749989865	CATTLEMEN	lure	n/a	n/a	n/a	1
86.288	0.749985637	UTTERANCE	lure	n/a	n/a	n/a	1
87.038	0.533329429	BOAT	lure	n/a	n/a	n/a	1
87.572	0.533325615	NOVELIST	lure	n/a	n/a	n/a	1
88.105	0.349996982	PHANTOM	lure	n/a	n/a	n/a	1
88.455	0.366768994	PURGATORY	lure	n/a	n/a	n/a	1
88.822	0.685313859	ROADBLOCK	lure	n/a	n/a	n/a	1
89.507	0.614640695	SHELL	short	n/a	n/a	n/a	1
90.122	0.550007683	SQUAD	lure	n/a	n/a	n/a	1
90.672	0.649950553	WHOOPING	lure	n/a	n/a	n/a	1
91.322	0.333275351	SUET	lure	n/a	n/a	n/a	1
91.655	0.716654067	CONFECTION	lure	n/a	n/a	n/a	1
92.372	0.433329945	HEADMASTER	lure	n/a	n/a	n/a	1
92.805	0.333327448	IMPRESSION	lure	n/a	n/a	n/a	1
93.138	0.499990513	GRAM	lure	n/a	n/a	n/a	1
93.638	0.583328671	SHIPYARD	lure	n/a	n/a	n/a	1
94.221	0.383324731	SALVATION	lure	n/a	n/a	n/a	1
94.605	0.549995945	COOP	lure	n/a	n/a	n/a	1
95.155	0.316753659	HORSEBACK	lure	n/a	n/a	n/a	1
95.472	0.416569294	CAPACITOR	lure	n/a	n/a	n/a	1
95.888	0.466658486	WELDER	lure	n/a	n/a	n/a	1
96.355	0.450111714	SOLSTICE	lure	n/a	n/a	n/a	1
96.805	0.383213615	RUNT	lure	n/a	n/a	n/a	1
97.188	0.416660419	KAZOO	lure	n/a	n/a	n/a	1
97.605	1.016747205	ELDERBERRY	fruit	566	2	2	1
98.622	0.683231697	THISTLE	lure	n/a	n/a	n/a	1
99.305	0.399991993	AUTOCRACY	lure	n/a	n/a	n/a	1
99.705	0.53337275	PUEBLO	lure	n/a	n/a	n/a	1
100.238	0.566663582	SEAHORSE	lure	n/a	n/a	n/a	1
100.805	0.716606677	ANCESTOR	lure	n/a	n/a	n/a	1
101.521	0.616718961	CHOIR	lure	n/a	n/a	n/a	1
102.138	0.733261507	GULF	lure	n/a	n/a	n/a	1
102.871	0.600050207	QUART	lure	n/a	n/a	n/a	1
103.471	0.483317468	HERBIVORE	lure	n/a	n/a	n/a	1
103.955	0.34994618	BOOKSTALL	lure	n/a	n/a	n/a	1
104.305	0.583325571	LEAKAGE	lure	n/a	n/a	n/a	1
104.888	0.616659199	SALESMAN	lure	n/a	n/a	n/a	1
105.505	0.383450731	STEELMAKER	lure	n/a	n/a	n/a	1
105.888	2.016517518	ASHES	long	n/a	n/a	n/a	1
107.905	0.56665805	CASSEROLE	lure	n/a	n/a	n/a	1
108.471	0.383327969	BABYHOOD	lure	n/a	n/a	n/a	1
108.855	0.666657348	THEORIST	lure	n/a	n/a	n/a	1
109.521	0.633323675	MIDNIGHT	lure	n/a	n/a	n/a	1
110.155	0.699992445	INCLINE	lure	n/a	n/a	n/a	1
110.855	0.583325619	PEPPERONI	lure	n/a	n/a	n/a	1
111.438	0.416661251	AREA	lure	n/a	n/a	n/a	1
111.855	0.48332433	INVALIDISM	lure	n/a	n/a	n/a	1
112.338	0.699991698	CLIQUE	lure	n/a	n/a	n/a	1
113.038	0.36671123	ABSTINENCE	lure	n/a	n/a	n/a	1
113.405	0.516606675	SCAPULA	lure	n/a	n/a	n/a	1
113.921	0.61671235	KANGAROO	lure	n/a	n/a	n/a	1
114.538	2.049924069	STAPLE	long	n/a	n/a	n/a	1
116.588	0.583324047	COMMITTAL	lure	n/a	n/a	n/a	1
117.171	0.499990422	SUPERSTAR	lure	n/a	n/a	n/a	1
117.671	0.516661281	BEATER	lure	n/a	n/a	n/a	1
118.188	0.633325984	PUPIL	lure	n/a	n/a	n/a	1
118.821	0.749989927	WARDROBE	lure	n/a	n/a	n/a	1
119.571	0.366659604	COLLOQUIUM	lure	n/a	n/a	n/a	1
119.938	0.633325582	SOUNDTRACK	lure	n/a	n/a	n/a	1
120.571	0.333330393	SPINSTER	lure	n/a	n/a	n/a	1
120.904	0.349992897	SALTWATER	lure	n/a	n/a	n/a	1
121.254	0.533325745	LAWN	lure	n/a	n/a	n/a	1
121.788	0.750051522	COMPETENCY	lure	n/a	n/a	n/a	1
122.538	0.749929647	KIDDY	lure	n/a	n/a	n/a	1
123.288	1.016656255	CRANBERRY	fruit	683	2	2	1
124.304	0.533319553	HEARTACHE	lure	n/a	n/a	n/a	1
124.838	0.699995008	CERTAINTY	lure	n/a	n/a	n/a	1
125.538	0.633323239	ESQUIRE	lure	n/a	n/a	n/a	1
126.171	0.566661704	JOURNAL	lure	n/a	n/a	n/a	1
126.738	0.733321214	MOTORIST	lure	n/a	n/a	n/a	1
127.471	0.549991845	TANDEM	lure	n/a	n/a	n/a	1
128.021	0.449993867	OILSEED	lure	n/a	n/a	n/a	1
128.471	0.549993972	MUTTON	lure	n/a	n/a	n/a	1
129.021	0.716655846	BULLDOZER	lure	n/a	n/a	n/a	1
129.738	0.333329103	MEDALLION	lure	n/a	n/a	n/a	1
130.071	0.716658159	DILUTION	lure	n/a	n/a	n/a	1
130.788	0.416660758	IDIOCY	lure	n/a	n/a	n/a	1
131.204	0.44999148	TAKEOFF	lure	n/a	n/a	n/a	1
131.654	0.61665929	BRACELET	short	n/a	n/a	n/a	1
132.271	0.499995693	OFFENCE	lure	n/a	n/a	n/a	1
132.771	0.366659162	FRAGMENT	lure	n/a	n/a	n/a	1
133.138	0.733326001	MISHAP	lure	n/a	n/a	n/a	1
133.871	0.720986591	EXTINCTION	lure	n/a	n/a	n/a	1
134.592	0.728992387	PUPPY	lure	n/a	n/a	n/a	1
135.321	0.649991789	VISA	lure	n/a	n/a	n/a	1
135.971	0.633324021	WALKOVER	lure	n/a	n/a	n/a	1
136.604	0.566661703	BOOKCLUB	lure	n/a	n/a	n/a	1
137.171	0.583323502	ATTACHMENT	lure	n/a	n/a	n/a	1
137.754	0.749986785	GENDER	lure	n/a	n/a	n/a	1
138.504	0.316666035	HORSEPOWER	lure	n/a	n/a	n/a	1
138.821	0.399992432	DISBARMENT	lure	n/a	n/a	n/a	1
139.221	0.366658518	AMNESTY	lure	n/a	n/a	n/a	1
139.588	2.016644671	LIGHT	long	n/a	n/a	n/a	1
141.604	0.566658514	COMPONENT	lure	n/a	n/a	n/a	1
142.171	0.633325517	HEALER	lure	n/a	n/a	n/a	1
142.804	0.499992776	UMBRELLA	lure	n/a	n/a	n/a	1
143.304	0.483321325	MATERNITY	lure	n/a	n/a	n/a	1
143.787	0.533332333	TRADESMAN	lure	n/a	n/a	n/a	1
144.321	0.549994464	SACCHARIN	lure	n/a	n/a	n/a	1
144.871	0.599987866	WEEK	lure	n/a	n/a	n/a	1
145.471	0.549993639	PEWTER	lure	n/a	n/a	n/a	1
146.021	0.399994142	NEEDLEWORK	lure	n/a	n/a	n/a	1
146.421	0.516657164	PERCUSSION	lure	n/a	n/a	n/a	1
146.937	0.46666346	MUTT	lure	n/a	n/a	n/a	1
147.404	2.01663731	CART	long	n/a	n/a	n/a	1
149.421	0.333330474	MASON	lure	n/a	n/a	n/a	1
149.754	0.533326296	CONVEYANCE	lure	n/a	n/a	n/a	1
150.287	0.466661398	ADORATION	lure	n/a	n/a	n/a	1
150.754	0.649990462	MONARCHY	lure	n/a	n/a	n/a	1
151.404	0.599992214	MOURNER	lure	n/a	n/a	n/a	1
152.004	0.46666224	DEMOTION	lure	n/a	n/a	n/a	1
152.471	0.733319459	WOAD	lure	n/a	n/a	n/a	1
153.204	0.43333042	PRETENSE	lure	n/a	n/a	n/a	1
153.637	0.599991856	DESERTION	lure	n/a	n/a	n/a	1
154.237	0.750027651	RAINDROP	lure	n/a	n/a	n/a	1
154.987	0.450005883	HASHISH	lure	n/a	n/a	n/a	1
155.437	0.683273839	EMERGENCE	lure	n/a	n/a	n/a	1
156.121	1.016655659	GRAPE	fruit	770	2	2	1
157.137	0.583318934	CULPRIT	lure	n/a	n/a	n/a	1
157.721	0.733326801	SOYBEAN	lure	n/a	n/a	n/a	1
158.454	0.466696782	SALESWOMAN	lure	n/a	n/a	n/a	1
158.921	0.350072816	SLOTH	lure	n/a	n/a	n/a	1
159.271	0.449882005	BRAWN	lure	n/a	n/a	n/a	1
159.721	0.416660181	POEM	lure	n/a	n/a	n/a	1
160.137	0.683321914	POSSESSOR	lure	n/a	n/a	n/a	1
160.821	0.749991016	SCIENCE	lure	n/a	n/a	n/a	1
161.571	0.449995035	UNCONCERN	lure	n/a	n/a	n/a	1
162.021	0.399994051	AIRFIELD	lure	n/a	n/a	n/a	1
162.421	0.433328574	EGGBEATER	lure	n/a	n/a	n/a	1
162.854	0.366660616	KNOCKDOWN	lure	n/a	n/a	n/a	1
163.221	0.316661927	SHOOTER	lure	n/a	n/a	n/a	1
163.537	0.649989682	CHARCOAL	lure	n/a	n/a	n/a	1
164.187	2.016642509	BROOM	long	n/a	n/a	n/a	1
166.204	0.699989152	REMISSION	lure	n/a	n/a	n/a	1
166.904	0.683323771	RATION	lure	n/a	n/a	n/a	1
167.587	0.616660881	LUCK	lure	n/a	n/a	n/a	1
168.204	0.749988622	COLLATION	lure	n/a	n/a	n/a	1
168.954	0.49999143	PROTON	lure	n/a	n/a	n/a	1
169.454	0.316663858	PHYSICIAN	lure	n/a	n/a	n/a	1
169.77	0.683436594	TROUPE	lure	n/a	n/a	n/a	1
170.454	0.766543458	FLIER	lure	n/a	n/a	n/a	1
171.22	0.349995867	ENTROPY	lure	n/a	n/a	n/a	1
171.57	0.58332521	COUSIN	lure	n/a	n/a	n/a	1
172.154	0.449993686	PUPPETEER	lure	n/a	n/a	n/a	1
172.604	0.616653551	GALLON	short	n/a	n/a	n/a	1
173.22	0.333332939	FOOTPAD	lure	n/a	n/a	n/a	1
173.554	0.499993402	CROISSANT	lure	n/a	n/a	n/a	1
174.054	0.466660684	LETTERHEAD	lure	n/a	n/a	n/a	1
174.52	0.633324835	VIGILANCE	lure	n/a	n/a	n/a	1
175.154	0.700038934	JUMPER	lure	n/a	n/a	n/a	1
175.854	0.699937827	THRUSH	lure	n/a	n/a	n/a	1
176.554	0.58339148	LIBERTY	lure	n/a	n/a	n/a	1
177.137	0.616594876	VAPIDITY	lure	n/a	n/a	n/a	1
177.754	0.36666337	GRANDSTAND	lure	n/a	n/a	n/a	1
178.12	0.700036009	GURU	lure	n/a	n/a	n/a	1
178.82	0.516678182	ATMOSPHERE	lure	n/a	n/a	n/a	1
179.337	0.333265373	MEDIATOR	lure	n/a	n/a	n/a	1
179.67	0.466660275	ARMORY	lure	n/a	n/a	n/a	1
180.137	0.683372314	CRESCENT	lure	n/a	n/a	n/a	1
180.82	0.416612483	MALLET	lure	n/a	n/a	n/a	1
181.237	1.01665324	GRAPEFRUIT	fruit	678	2	2	1
182.254	0.483391371	SUBSECTION	lure	n/a	n/a	n/a	1
182.737	0.583310023	BREAKDOWN	lure	n/a	n/a	n/a	1
183.32	0.549945963	TYPHOON	lure	n/a	n/a	n/a	1
183.87	0.683323564	WARMTH	lure	n/a	n/a	n/a	1
184.554	0.316719562	PENNANT	lure	n/a	n/a	n/a	1
184.87	0.583267114	GASKET	lure	n/a	n/a	n/a	1
185.454	0.399994021	SEMICOLON	lure	n/a	n/a	n/a	1
185.854	0.433326339	TADPOLE	lure	n/a	n/a	n/a	1
186.287	0.333329719	DISTILLERY	lure	n/a	n/a	n/a	1
186.62	0.766671665	STATUE	lure	n/a	n/a	n/a	1
187.387	0.649977754	MORON	lure	n/a	n/a	n/a	1
188.037	0.433326361	CABARET	lure	n/a	n/a	n/a	1
188.47	0.733323756	EXPLORER	lure	n/a	n/a	n/a	1
189.204	0.683325548	LAVA	lure	n/a	n/a	n/a	1
189.887	2.016638664	PASTEL	long	n/a	n/a	n/a	1
191.904	0.733324337	CREAMERY	lure	n/a	n/a	n/a	1
192.637	0.633324081	SALESMEN	lure	n/a	n/a	n/a	1
193.27	0.73337918	COCA	lure	n/a	n/a	n/a	1
194.004	0.666597351	PELICAN	lure	n/a	n/a	n/a	1
194.67	0.46666468	TUNER	lure	n/a	n/a	n/a	1
195.137	0.666656095	CHAPLAIN	lure	n/a	n/a	n/a	1
195.803	0.449995729	FALLACY	lure	n/a	n/a	n/a	1
196.253	0.566657121	BACKBOARD	lure	n/a	n/a	n/a	1
196.82	0.616660975	MOB	lure	n/a	n/a	n/a	1
197.437	0.68332525	VULTURE	lure	n/a	n/a	n/a	1
198.12	0.616657914	RECORD	short	n/a	n/a	n/a	1
198.737	0.549992777	DESPOTISM	lure	n/a	n/a	n/a	1
199.287	0.699984886	MULTITUDE	lure	n/a	n/a	n/a	1
199.987	0.516661512	OUTCRY	lure	n/a	n/a	n/a	1
200.503	0.433327394	GALLUP	lure	n/a	n/a	n/a	1
200.937	0.466709291	MOMMY	lure	n/a	n/a	n/a	1
201.403	0.416610789	OCCURRENCE	lure	n/a	n/a	n/a	1
201.82	0.634670224	KINFOLK	lure	n/a	n/a	n/a	1
202.455	0.315372461	AQUEDUCT	lure	n/a	n/a	n/a	1
202.77	0.499939247	GHETTO	lure	n/a	n/a	n/a	1
203.27	0.368493383	RAPTURE	lure	n/a	n/a	n/a	1
203.639	0.614825056	CALCULATOR	lure	n/a	n/a	n/a	1
204.253	0.683328484	BATHTUB	lure	n/a	n/a	n/a	1
204.937	0.583320603	COLLAGEN	lure	n/a	n/a	n/a	1
205.52	0.666657099	PINGPONG	lure	n/a	n/a	n/a	1
206.187	0.649995909	CANDLE	short	n/a	n/a	n/a	1
206.837	0.499992903	PATRONAGE	lure	n/a	n/a	n/a	1
207.337	0.333330938	HALO	lure	n/a	n/a	n/a	1
207.67	0.499989987	DOORKEEPER	lure	n/a	n/a	n/a	1
208.17	0.533324462	FRAMEWORK	lure	n/a	n/a	n/a	1
208.703	0.449995625	INTERPLAY	lure	n/a	n/a	n/a	1
209.153	0.749993464	CLARITY	lure	n/a	n/a	n/a	1
209.903	0.685494576	ART	lure	n/a	n/a	n/a	1
210.589	0.664487499	WASTEWATER	lure	n/a	n/a	n/a	1
211.253	0.749984497	PHOSPHATE	lure	n/a	n/a	n/a	1
212.003	0.46666328	BALCONY	lure	n/a	n/a	n/a	1
212.47	0.366660534	SAINTHOOD	lure	n/a	n/a	n/a	1
212.837	0.566657678	MARIONETTE	lure	n/a	n/a	n/a	1
213.403	0.59999163	POVERTY	lure	n/a	n/a	n/a	1
214.003	0.619469661	SEAWAY	lure	n/a	n/a	n/a	1
214.623	1.01457627	STRAWBERRY	fruit	580	2	2	1
215.637	0.382593817	SYSTEM	lure	n/a	n/a	n/a	1
216.02	0.3333286	EXCERPT	lure	n/a	n/a	n/a	1
216.353	0.466663992	MEALTIME	lure	n/a	n/a	n/a	1
216.82	0.733338148	RETENTION	lure	n/a	n/a	n/a	1
217.553	0.799971827	WELLSPRING	lure	n/a	n/a	n/a	1
218.353	0.399999628	WOOL	lure	n/a	n/a	n/a	1
218.753	0.716655778	ALMOND	lure	n/a	n/a	n/a	1
219.47	0.666653409	MAVERICK	lure	n/a	n/a	n/a	1
220.136	0.499998472	ARTISAN	lure	n/a	n/a	n/a	1
220.636	0.449989524	CHILDREN	lure	n/a	n/a	n/a	1
221.086	0.399997184	CHIVE	lure	n/a	n/a	n/a	1
221.486	0.335484911	GRAVEL	lure	n/a	n/a	n/a	1
221.822	0.731166035	CORKSCREW	lure	n/a	n/a	n/a	1
222.553	0.616655586	PAGEANTRY	lure	n/a	n/a	n/a	1
223.17	0.649994325	GLOOM	lure	n/a	n/a	n/a	1
223.82	0.399992253	SOLVENCY	lure	n/a	n/a	n/a	1
224.22	0.749994197	CONQUEST	lure	n/a	n/a	n/a	1
224.97	0.533328249	DELETION	lure	n/a	n/a	n/a	1
225.503	0.583318766	MATURATION	lure	n/a	n/a	n/a	1
226.086	0.466660489	INTUITION	lure	n/a	n/a	n/a	1
226.553	n/a	COMMOTION	lure	n/a	n/a	n/a	1
238.036	0.583384208	CHIMNEY	lure	n/a	n/a	n/a	1
238.62	0.716599495	WATERFALL	lure	n/a	n/a	n/a	1
239.336	0.550050125	HAVEN	lure	n/a	n/a	n/a	1
239.886	0.466662318	PLAYGROUP	lure	n/a	n/a	n/a	1
240.353	0.383266615	SOCIALITY	lure	n/a	n/a	n/a	1
240.736	0.400061219	HERITAGE	lure	n/a	n/a	n/a	1
241.136	0.716658463	DIGNITARY	lure	n/a	n/a	n/a	1
241.853	1.016583027	CHERRY	fruit	590	2	2	1
242.869	0.416664386	WONDERLAND	lure	n/a	n/a	n/a	1
243.286	0.44999295	OAT	lure	n/a	n/a	n/a	1
243.736	0.38332926	SWORDFISH	lure	n/a	n/a	n/a	1
244.119	0.316663972	MARGIN	lure	n/a	n/a	n/a	1
244.436	0.466660358	SARCASM	lure	n/a	n/a	n/a	1
244.903	0.533325332	PLAYPEN	lure	n/a	n/a	n/a	1
245.436	0.666924734	ILLUSION	lure	n/a	n/a	n/a	1
246.103	0.61639146	WEAPOn/aY	lure	n/a	n/a	n/a	1
246.719	0.683324202	WRAPPER	lure	n/a	n/a	n/a	1
247.403	0.316656823	ANNOYANCE	lure	n/a	n/a	n/a	1
247.719	0.666706636	SHIRTWAIST	lure	n/a	n/a	n/a	1
248.386	0.516616121	ZUCCHINI	lure	n/a	n/a	n/a	1
248.903	0.366661777	PHARMACY	lure	n/a	n/a	n/a	1
249.269	0.483326289	LIBRARIAN	lure	n/a	n/a	n/a	1
249.753	2.016640687	LIGHT	long	n/a	n/a	n/a	1
251.769	0.699990387	BULLOCK	lure	n/a	n/a	n/a	1
252.469	0.366661907	NIGHTIE	lure	n/a	n/a	n/a	1
252.836	0.700057314	SABOTAGE	lure	n/a	n/a	n/a	1
253.536	0.683251648	MOOSE	lure	n/a	n/a	n/a	1
254.219	0.566665335	RAG	lure	n/a	n/a	n/a	1
254.786	0.366657767	DOORBELL	lure	n/a	n/a	n/a	1
255.153	0.64999453	CANNONBALL	lure	n/a	n/a	n/a	1
255.803	0.568985826	HEIRLOOM	lure	n/a	n/a	n/a	1
256.372	0.514331924	MIGRAINE	lure	n/a	n/a	n/a	1
256.886	0.416657031	MARATHON	lure	n/a	n/a	n/a	1
257.303	0.583327633	SUBSIDY	lure	n/a	n/a	n/a	1
257.886	0.616660748	SOAP	short	n/a	n/a	n/a	1
258.503	0.683324348	RAVIOLI	lure	n/a	n/a	n/a	1
259.186	0.749986737	SIMPLETON	lure	n/a	n/a	n/a	1
259.936	0.649995703	REGULARITY	lure	n/a	n/a	n/a	1
260.586	0.749983695	SUSPICION	lure	n/a	n/a	n/a	1
261.336	0.366666072	INTEGER	lure	n/a	n/a	n/a	1
261.703	0.449995842	FREEZER	lure	n/a	n/a	n/a	1
262.153	0.333322818	HYPERBOLA	lure	n/a	n/a	n/a	1
262.486	0.685998648	ALIENATION	lure	n/a	n/a	n/a	1
263.172	0.33066032	FREEHOLDER	lure	n/a	n/a	n/a	1
263.503	0.449992017	ESPRESSO	lure	n/a	n/a	n/a	1
263.953	0.516707553	CORVETTE	lure	n/a	n/a	n/a	1
264.469	0.333276931	DEERSKIN	lure	n/a	n/a	n/a	1
264.803	0.533330826	ENTRANCE	lure	n/a	n/a	n/a	1
265.336	0.533326346	COCKROACH	lure	n/a	n/a	n/a	1
265.869	0.616656194	BETRAYER	lure	n/a	n/a	n/a	1
266.486	0.616661844	SHELL	short	n/a	n/a	n/a	1
267.102	0.616652862	THROAT	lure	n/a	n/a	n/a	1
267.719	0.66665769	RESPITE	lure	n/a	n/a	n/a	1
268.386	0.733329609	SPECIALTY	lure	n/a	n/a	n/a	1
269.119	0.383377846	COLOGNE	lure	n/a	n/a	n/a	1
269.503	0.633387027	PIGLET	lure	n/a	n/a	n/a	1
270.136	0.616543828	SERENITY	lure	n/a	n/a	n/a	1
270.752	0.583364523	SLIVER	lure	n/a	n/a	n/a	1
271.336	0.433286899	IMMODESTY	lure	n/a	n/a	n/a	1
271.769	0.566660211	ISOLATION	lure	n/a	n/a	n/a	1
272.336	0.400036177	ONLOOKER	lure	n/a	n/a	n/a	1
272.736	0.399952991	SEMICIRCLE	lure	n/a	n/a	n/a	1
273.136	0.499994104	QUANTITY	lure	n/a	n/a	n/a	1
273.636	0.616660226	ADMITTANCE	lure	n/a	n/a	n/a	1
274.252	0.64998538	JUDGEMENT	lure	n/a	n/a	n/a	1
274.902	0.616660188	CHROME	short	n/a	n/a	n/a	1
275.519	0.633326821	PATHOLOGY	lure	n/a	n/a	n/a	1
276.152	0.666696375	SUBURBIA	lure	n/a	n/a	n/a	1
276.819	0.716614712	CHECKOUT	lure	n/a	n/a	n/a	1
277.536	0.649994152	IRONWORK	lure	n/a	n/a	n/a	1
278.186	0.466661303	CONDUCTION	lure	n/a	n/a	n/a	1
278.652	0.66936606	SUSPECT	lure	n/a	n/a	n/a	1
279.322	0.563951779	PERSUASION	lure	n/a	n/a	n/a	1
279.886	0.516658361	FOOTPRINT	lure	n/a	n/a	n/a	1
280.402	0.649992603	CONSTANCY	lure	n/a	n/a	n/a	1
281.052	0.68332224	ONSLAUGHT	lure	n/a	n/a	n/a	1
281.736	0.46666311	HOUSE	lure	n/a	n/a	n/a	1
282.202	0.53332222	CARLOAD	lure	n/a	n/a	n/a	1
282.736	2.016637949	FLEET	long	n/a	n/a	n/a	1
284.752	0.716660654	WEEKDAY	lure	n/a	n/a	n/a	1
285.469	0.516661801	VIXEN	lure	n/a	n/a	n/a	1
285.986	0.666658421	CORNEA	lure	n/a	n/a	n/a	1
286.652	0.46665452	MOBILITY	lure	n/a	n/a	n/a	1
287.119	0.350039712	SINNER	lure	n/a	n/a	n/a	1
287.469	0.733284552	INSET	lure	n/a	n/a	n/a	1
288.202	0.483376712	MISFORTUNE	lure	n/a	n/a	n/a	1
288.686	0.649938082	APPENDIX	lure	n/a	n/a	n/a	1
289.336	0.416663642	INDUSTRY	lure	n/a	n/a	n/a	1
289.752	0.516698438	RAMBLER	lure	n/a	n/a	n/a	1
290.269	0.699949973	BLUEJAY	lure	n/a	n/a	n/a	1
290.969	2.016643268	CART	long	n/a	n/a	n/a	1
292.985	0.666651683	CROQUET	lure	n/a	n/a	n/a	1
293.652	0.633374999	CADET	lure	n/a	n/a	n/a	1
294.286	0.433282898	WORKHOUSE	lure	n/a	n/a	n/a	1
294.719	0.499991357	ARMADILLO	lure	n/a	n/a	n/a	1
295.219	0.483323304	PLASM	lure	n/a	n/a	n/a	1
295.702	0.437878553	CARTILAGE	lure	n/a	n/a	n/a	1
296.14	0.395558906	MARL	lure	n/a	n/a	n/a	1
296.536	0.649878942	ANXIETY	lure	n/a	n/a	n/a	1
297.185	0.683324834	MAGNOLIA	lure	n/a	n/a	n/a	1
297.869	0.549991508	STREAMER	lure	n/a	n/a	n/a	1
298.419	0.433326996	GOBBLER	lure	n/a	n/a	n/a	1
298.852	0.616661222	GALLON	short	n/a	n/a	n/a	1
299.469	0.666657005	REFRESHER	lure	n/a	n/a	n/a	1
300.135	0.416657401	JOKER	lure	n/a	n/a	n/a	1
300.552	0.416662772	RETINA	lure	n/a	n/a	n/a	1
300.969	0.766655735	TEATIME	lure	n/a	n/a	n/a	1
301.735	0.433329953	BLOODSTOCK	lure	n/a	n/a	n/a	1
302.169	0.316660923	SCENERY	lure	n/a	n/a	n/a	1
302.485	0.483327728	ADMIRALTY	lure	n/a	n/a	n/a	1
302.969	0.383329097	DELIRIUM	lure	n/a	n/a	n/a	1
303.352	0.683322142	UNION	lure	n/a	n/a	n/a	1
304.035	0.61666041	PRETZEL	lure	n/a	n/a	n/a	1
304.652	0.533323396	RACER	lure	n/a	n/a	n/a	1
305.185	0.33332779	AGITATION	lure	n/a	n/a	n/a	1
305.519	0.366664142	MOMMA	lure	n/a	n/a	n/a	1
305.885	0.466663876	RELICT	lure	n/a	n/a	n/a	1
306.352	0.49999334	HAKE	lure	n/a	n/a	n/a	1
306.852	0.616654967	CONTRACT	short	n/a	n/a	n/a	1
307.469	0.449995831	PEACEMAKER	lure	n/a	n/a	n/a	1
307.919	0.549996877	ECONOMIST	lure	n/a	n/a	n/a	1
308.469	0.38332193	RELIEF	lure	n/a	n/a	n/a	1
308.852	0.69999078	LOCALITY	lure	n/a	n/a	n/a	1
309.552	0.466660263	POSTER	lure	n/a	n/a	n/a	1
310.019	0.683327408	EMPIRICIST	lure	n/a	n/a	n/a	1
310.702	0.366660819	SORCERY	lure	n/a	n/a	n/a	1
311.069	0.583323191	SIGMA	lure	n/a	n/a	n/a	1
311.652	0.449991582	CONTINUUM	lure	n/a	n/a	n/a	1
312.102	0.599992418	PROTEGE	lure	n/a	n/a	n/a	1
312.702	0.399998926	TRAVELLER	lure	n/a	n/a	n/a	1
313.102	0.699987931	CLASSICIST	lure	n/a	n/a	n/a	1
313.802	0.403866571	ELITE	lure	n/a	n/a	n/a	1
314.206	0.33056129	ANGEL	lure	n/a	n/a	n/a	1
314.536	0.616566039	ABSENCE	lure	n/a	n/a	n/a	1
315.153	1.015641842	WATERMELON	fruit	698	2	2	1
316.169	0.483328758	HOOLIGAN	lure	n/a	n/a	n/a	1
316.652	0.51665525	ALLOCATION	lure	n/a	n/a	n/a	1
317.168	0.699991038	CRACKER	lure	n/a	n/a	n/a	1
317.868	0.616662505	PASSENGER	lure	n/a	n/a	n/a	1
318.485	0.783320982	LORE	lure	n/a	n/a	n/a	1
319.268	0.316660678	COUPE	lure	n/a	n/a	n/a	1
319.585	0.716661354	EXPECTANCY	lure	n/a	n/a	n/a	1
320.302	0.399992382	TRICKSTER	lure	n/a	n/a	n/a	1
320.702	0.704764087	PRAIRIE	lure	n/a	n/a	n/a	1
321.407	0.697568003	CULTIST	lure	n/a	n/a	n/a	1
322.104	0.747640295	YAM	lure	n/a	n/a	n/a	1
322.852	0.733322024	VISIBILITY	lure	n/a	n/a	n/a	1
323.585	2.016644127	PASTEL	long	n/a	n/a	n/a	1
325.602	0.399988754	WARHORSE	lure	n/a	n/a	n/a	1
326.002	0.733322481	VIGIL	lure	n/a	n/a	n/a	1
326.735	0.550034074	NUN	lure	n/a	n/a	n/a	1
327.285	0.316621808	LARCENY	lure	n/a	n/a	n/a	1
327.602	0.45003309	INSIGHT	lure	n/a	n/a	n/a	1
328.052	0.583290423	VASE	lure	n/a	n/a	n/a	1
328.635	0.733325748	SPHINCTER	lure	n/a	n/a	n/a	1
329.368	0.649984738	ADMIRATION	lure	n/a	n/a	n/a	1
330.018	0.716657066	EGGPLANT	lure	n/a	n/a	n/a	1
330.735	0.716659853	LIBERATOR	lure	12	2	n/a	0
331.452	0.366704204	BRONZE	lure	n/a	n/a	n/a	1
331.818	0.649948013	SACK	short	n/a	n/a	n/a	1
332.468	0.399994586	AIRLINE	lure	n/a	n/a	n/a	1
332.868	0.716656857	TWEEZER	lure	n/a	n/a	n/a	1
333.585	0.466702834	OCTANE	lure	n/a	n/a	n/a	1
334.052	0.449954342	DOLPHIN	lure	n/a	n/a	n/a	1
334.502	0.733319552	MANUSCRIPT	lure	n/a	n/a	n/a	1
335.235	0.333328632	TEARJERKER	lure	n/a	n/a	n/a	1
335.568	0.583325488	STIRRUP	lure	n/a	n/a	n/a	1
336.152	0.533371859	BARRAGE	lure	n/a	n/a	n/a	1
336.685	0.436803658	BOTANY	lure	n/a	n/a	n/a	1
337.122	0.74734857	ADHERENCE	lure	n/a	n/a	n/a	1
337.869	0.449119556	HARDSHIP	lure	n/a	n/a	n/a	1
338.318	0.58331991	INTENT	lure	n/a	n/a	n/a	1
338.902	0.599996727	ENTIRETY	lure	n/a	n/a	n/a	1
339.502	0.549990042	HORSEHAIR	lure	n/a	n/a	n/a	1
340.052	1.016651213	GRAPEFRUIT	fruit	711	2	2	1
341.068	0.586833864	LOGIC	lure	n/a	n/a	n/a	1
341.655	0.72982463	PERVERSITY	lure	n/a	n/a	n/a	1
342.385	0.633315715	MURK	lure	n/a	n/a	n/a	1
343.018	0.499995577	TALE	lure	n/a	n/a	n/a	1
343.518	0.733328378	TWEED	lure	n/a	n/a	n/a	1
344.251	0.433324614	UPSURGE	lure	n/a	n/a	n/a	1
344.685	0.333325069	TRESPASSER	lure	n/a	n/a	n/a	1
345.018	0.366669612	DIVIDEND	lure	n/a	n/a	n/a	1
345.385	0.733320638	NOTION	lure	n/a	n/a	n/a	1
346.118	0.316657573	SANDPIPER	lure	n/a	n/a	n/a	1
346.435	0.366661866	HANDRAIL	lure	n/a	n/a	n/a	1
346.801	0.666662731	BOBTAIL	lure	n/a	n/a	n/a	1
347.468	0.683321181	REGION	lure	n/a	n/a	n/a	1
348.151	0.750031365	DINNERWARE	lure	n/a	n/a	n/a	1
348.901	1.050010418	BLACKBERRY	fruit	661	2	2	1
349.951	0.649928791	CATWALK	lure	n/a	n/a	n/a	1
350.601	0.516657558	TRAVESTY	lure	n/a	n/a	n/a	1
351.118	0.749987266	ORCHARD	lure	n/a	n/a	n/a	1
351.868	0.716664967	CHICKPEA	lure	n/a	n/a	n/a	1
352.585	0.31665607	SYLLABLE	lure	n/a	n/a	n/a	1
352.901	0.683322093	VODKA	lure	n/a	n/a	n/a	1
353.585	0.449993731	GENERATION	lure	n/a	n/a	n/a	1
354.035	0.53333274	VOYAGER	lure	n/a	n/a	n/a	1
354.568	0.34998853	ABSURDITY	lure	n/a	n/a	n/a	1
354.918	0.683328121	OPULENCE	lure	n/a	n/a	n/a	1
355.601	0.4833769	INVASION	lure	n/a	n/a	n/a	1
356.085	0.537388584	JOCKEY	lure	n/a	n/a	n/a	1
356.622	0.698573615	APOSTLE	lure	n/a	n/a	n/a	1
357.321	2.014599012	CHALK	long	n/a	n/a	n/a	1
359.335	0.382713724	HUBCAP	lure	n/a	n/a	n/a	1
359.718	0.366626139	IVY	lure	n/a	n/a	n/a	1
360.085	0.433325832	REGENT	lure	n/a	n/a	n/a	1
360.518	0.549994559	ROWBOAT	lure	n/a	n/a	n/a	1
361.068	0.733324101	DIGRESSION	lure	n/a	n/a	n/a	1
361.801	0.616703019	DIRECTION	lure	n/a	n/a	n/a	1
362.418	0.616614457	DETONATOR	lure	n/a	n/a	n/a	1
363.035	0.533318757	PIPER	lure	n/a	n/a	n/a	1
363.568	0.483327354	PENINSULA	lure	n/a	n/a	n/a	1
364.051	0.349995931	COMMISSARY	lure	n/a	n/a	n/a	1
364.401	0.383367753	ROUNDUP	lure	n/a	n/a	n/a	1
364.785	0.616618584	SUBSIDIARY	lure	n/a	n/a	n/a	1
365.401	1.016657626	ORANGE	fruit	714	2	2	1
366.418	0.749982494	CARTOONIST	lure	n/a	n/a	n/a	1
367.168	0.31666288	PACKET	lure	n/a	n/a	n/a	1
367.484	0.68338657	VIOLATION	lure	n/a	n/a	n/a	1
368.168	0.466601883	BACHELOR	lure	n/a	n/a	n/a	1
368.634	0.749995506	REGENCY	lure	n/a	n/a	n/a	1
369.384	0.699988934	SWEETIE	lure	n/a	n/a	n/a	1
370.084	0.683325939	WIG	lure	n/a	n/a	n/a	1
370.768	0.333328406	BANQUET	lure	n/a	n/a	n/a	1
371.101	0.466652664	TELETYPE	lure	n/a	n/a	n/a	1
371.568	0.750416086	OCEANSIDE	lure	n/a	n/a	n/a	1
372.318	0.482908352	LOADER	lure	n/a	n/a	n/a	1
372.801	0.649982702	CLAPBOARD	lure	n/a	n/a	n/a	1
373.451	2.049980874	ASHES	long	n/a	n/a	n/a	1
375.501	0.333324544	INDICATOR	lure	n/a	n/a	n/a	1
375.834	0.849988973	PASTRAMI	lure	n/a	n/a	n/a	1
376.684	0.749987676	PREACHER	lure	n/a	n/a	n/a	1
377.434	0.633327939	FOREBEAR	lure	n/a	n/a	n/a	1
378.068	0.733325921	SYMPTOM	lure	n/a	n/a	n/a	1
378.801	0.669980122	TOMCAT	lure	n/a	n/a	n/a	1
379.471	0.367558942	POTTERY	lure	n/a	n/a	n/a	1
379.839	0.312438927	LIP	lure	n/a	n/a	n/a	1
380.151	0.319681475	HARDWOOD	lure	n/a	n/a	n/a	1
380.471	0.696971939	GODMOTHER	lure	n/a	n/a	n/a	1
381.168	0.749996359	BOOKBINDER	lure	n/a	n/a	n/a	1
381.918	1.01670367	GRAPE	fruit	637	2	2	1
382.934	0.499935312	COMPLICITY	lure	n/a	n/a	n/a	1
383.434	0.516700099	DOLLHOUSE	lure	n/a	n/a	n/a	1
383.951	0.550000517	PROBATION	lure	n/a	n/a	n/a	1
384.501	0.669220118	SIXPENCE	lure	n/a	n/a	n/a	1
385.17	0.330718396	OUTFIELD	lure	n/a	n/a	n/a	1
385.501	0.699990745	RELAXATION	lure	n/a	n/a	n/a	1
386.201	0.566658864	AORTA	lure	n/a	n/a	n/a	1
386.768	0.583326725	PORTAL	lure	n/a	n/a	n/a	1
387.351	0.349997035	QUEEN	lure	n/a	n/a	n/a	1
387.701	0.718163351	MOLECULE	lure	n/a	n/a	n/a	1
388.419	0.63181462	WINDOWSILL	lure	n/a	n/a	n/a	1
389.051	0.749988806	UNDERWOOD	lure	n/a	n/a	n/a	1
389.801	0.566662141	TRUTH	lure	n/a	n/a	n/a	1
390.368	2.016643896	ATLAS	long	n/a	n/a	n/a	1
392.384	0.716652052	SWINDLER	lure	n/a	n/a	n/a	1
393.101	0.666663979	OVERTIME	lure	n/a	n/a	n/a	1
393.767	0.399993628	HOLDOVER	lure	n/a	n/a	n/a	1
394.167	0.366657297	DEADLINE	lure	n/a	n/a	n/a	1
394.534	0.753173272	EXCISION	lure	n/a	n/a	n/a	1
395.287	0.747570361	HEADACHE	lure	n/a	n/a	n/a	1
396.035	0.582565836	POWDERPUFF	lure	n/a	n/a	n/a	1
396.617	0.699987987	ANALYZER	lure	n/a	n/a	n/a	1
397.317	0.38333259	WRATH	lure	n/a	n/a	n/a	1
397.701	0.699987738	BROILER	lure	n/a	n/a	n/a	1
398.401	0.683326492	FOREGROUND	lure	n/a	n/a	n/a	1
399.084	2.016638714	BROOM	long	n/a	n/a	n/a	1
401.101	0.766655879	FINALITY	lure	n/a	n/a	n/a	1
401.867	0.733321771	LOCOMOTION	lure	n/a	n/a	n/a	1
402.601	0.519436948	COVE	lure	n/a	n/a	n/a	1
403.12	0.716571161	DOGWOOD	lure	n/a	n/a	n/a	1
403.837	0.747295594	SLAPSTICK	lure	n/a	n/a	n/a	1
404.584	0.333370303	DUEL	lure	n/a	n/a	n/a	1
404.917	0.366625728	GEESE	lure	n/a	n/a	n/a	1
405.284	0.416660547	COB	lure	n/a	n/a	n/a	1
405.701	0.399990539	MIXTURE	lure	n/a	n/a	n/a	1
406.101	0.416666099	TOENAIL	lure	n/a	n/a	n/a	1
406.517	0.733325181	SOMEBODY	lure	n/a	n/a	n/a	1
407.251	0.650049569	PERMIT	short	n/a	n/a	n/a	1
407.901	0.366657625	PROXY	lure	n/a	n/a	n/a	1
408.267	0.516601003	WHISPERER	lure	n/a	n/a	n/a	1
408.784	0.58332453	NUTRIENT	lure	n/a	n/a	n/a	1
409.367	0.683366736	LATRINE	lure	n/a	n/a	n/a	1
410.051	0.733288264	FIST	lure	n/a	n/a	n/a	1
410.784	0.35059306	TACT	lure	n/a	n/a	n/a	1
411.135	0.482726162	FURY	lure	n/a	n/a	n/a	1
411.617	0.349989945	HOMAGE	lure	n/a	n/a	n/a	1
411.967	0.683330638	COMMODORE	lure	n/a	n/a	n/a	1
412.651	0.649985783	DILIGENCE	lure	n/a	n/a	n/a	1
413.301	0.683368675	ENZYME	lure	n/a	n/a	n/a	1
413.984	0.699951536	REFERENT	lure	n/a	n/a	n/a	1
414.684	0.366654105	NAMESAKE	lure	n/a	n/a	n/a	1
415.051	0.616661171	RECORD	short	n/a	n/a	n/a	1
415.667	0.733325659	NUGGET	lure	n/a	n/a	n/a	1
416.401	0.566656444	PARABOLA	lure	n/a	n/a	n/a	1
416.967	0.666665652	KEYPUNCH	lure	n/a	n/a	n/a	1
417.634	0.550026653	PARAPHRASE	lure	n/a	n/a	n/a	1
418.184	0.533287792	TOWNSMEN	lure	n/a	n/a	n/a	1
418.717	0.516656276	OUTLOOK	lure	n/a	n/a	n/a	1
419.234	0.516663486	TERRY	lure	n/a	n/a	n/a	1
419.75	0.633319537	COASTGUARD	lure	n/a	n/a	n/a	1
420.384	0.350000562	INQUISITOR	lure	n/a	n/a	n/a	1
420.734	0.649986788	MONGOOSE	lure	n/a	n/a	n/a	1
421.384	0.416661064	PROPULSION	lure	n/a	n/a	n/a	1
421.8	0.400036208	DOUBTER	lure	n/a	n/a	n/a	1
422.2	0.466620019	CRUISER	lure	n/a	n/a	n/a	1
422.667	0.666658369	ENACTMENT	lure	n/a	n/a	n/a	1
423.334	0.61666149	CANDLE	short	n/a	n/a	n/a	1
423.95	0.433324386	KICKBACK	lure	n/a	n/a	n/a	1
424.384	0.699992494	ISLE	lure	n/a	n/a	n/a	1
425.084	0.333332991	LAMPSHADE	lure	n/a	n/a	n/a	1
425.417	0.699984433	LIKELIHOOD	lure	n/a	n/a	n/a	1
426.117	0.383327827	ADMIRER	lure	n/a	n/a	n/a	1
426.5	0.483329839	MELODRAMA	lure	n/a	n/a	n/a	1
426.984	0.670861393	PLYWOOD	lure	n/a	n/a	n/a	1
427.655	0.629122874	EXCELLENCE	lure	n/a	n/a	n/a	1
428.284	0.383324046	ADVENTURE	lure	n/a	n/a	n/a	1
428.667	0.383327844	STEPSON	lure	n/a	n/a	n/a	1
429.05	0.649991497	IMPORTER	lure	n/a	n/a	n/a	1
429.7	0.649994232	PRECISION	lure	n/a	n/a	n/a	1
430.35	0.633325571	LAUNDROMAT	lure	n/a	n/a	n/a	1
430.984	0.33332453	DONATION	lure	n/a	n/a	n/a	1
431.317	0.61672019	BRACELET	short	n/a	n/a	n/a	1
431.934	0.499933154	PARTICLE	lure	n/a	n/a	n/a	1
432.434	0.600048453	CLUMP	lure	n/a	n/a	n/a	1
433.034	0.41660687	MONORAIL	lure	n/a	n/a	n/a	1
433.45	0.49999338	SUSPENSION	lure	n/a	n/a	n/a	1
433.95	0.499996405	YARD	lure	n/a	n/a	n/a	1
434.45	0.517876552	PARTRIDGE	lure	n/a	n/a	n/a	1
434.968	0.715436445	PUFFER	lure	n/a	n/a	n/a	1
435.684	0.549988434	SCANNER	lure	n/a	n/a	n/a	1
436.234	0.549996539	DEPUTY	lure	n/a	n/a	n/a	1
436.784	0.399998402	GRUB	lure	n/a	n/a	n/a	1
437.184	0.433322029	MILLIGRAM	lure	n/a	n/a	n/a	1
437.617	0.483383333	CHOWDER	lure	n/a	n/a	n/a	1
438.1	0.63327174	BELLMAN	lure	n/a	n/a	n/a	1
438.734	0.64998966	REPUTE	lure	n/a	n/a	n/a	1
439.384	0.599996362	BARITONE	lure	n/a	n/a	n/a	1
439.984	2.066633873	STAPLE	long	n/a	n/a	n/a	1
442.05	0.366667175	DUFFEL	lure	n/a	n/a	n/a	1
442.417	0.533323346	MART	lure	n/a	n/a	n/a	1
442.95	0.499990414	LUMBERJACK	lure	n/a	n/a	n/a	1
443.45	0.349998669	MEMORY	lure	n/a	n/a	n/a	1
443.8	0.416712151	WHISKER	lure	n/a	n/a	n/a	1
444.217	0.583276755	RETROSPECT	lure	n/a	n/a	n/a	1
444.8	0.550029942	LIGAMENT	lure	n/a	n/a	n/a	1
445.35	0.366660219	FAMINE	lure	n/a	n/a	n/a	1
445.717	0.399952147	HELICOPTER	lure	n/a	n/a	n/a	1
446.117	0.383325227	PASTEBOARD	lure	n/a	n/a	n/a	1
446.5	0.683332243	HAYSTACK	lure	n/a	n/a	n/a	1
447.183	0.41666192	APPLIANCE	lure	n/a	n/a	n/a	1
447.6	0.749989627	LIVELIHOOD	lure	n/a	n/a	n/a	1
448.35	2.016638799	SAWDUST	long	n/a	n/a	n/a	1
450.367	0.383323739	FRIGHT	lure	n/a	n/a	n/a	1
450.75	0.61665927	SUBSTATION	lure	n/a	n/a	n/a	1
451.367	0.699989425	MULE	lure	n/a	n/a	n/a	1
452.067	0.333334352	KAISER	lure	n/a	n/a	n/a	1
452.4	0.316655512	FLATFOOT	lure	n/a	n/a	n/a	1
452.717	0.666661416	SONGBIRD	lure	n/a	n/a	n/a	1
453.383	0.599991578	TREACHERY	lure	n/a	n/a	n/a	1
453.983	0.48332524	LOON	lure	n/a	n/a	n/a	1
454.467	0.69999089	FORT	lure	n/a	n/a	n/a	1
455.167	0.749991195	LINEUP	lure	n/a	n/a	n/a	1
455.917	0.699992039	ACCESSORY	lure	n/a	n/a	n/a	1
456.617	0.349992482	TRANSPLANT	lure	n/a	n/a	n/a	1
456.967	0.416662907	ASPIRIN	lure	n/a	n/a	n/a	1
457.383	0.516658064	GAINER	lure	n/a	n/a	n/a	1
457.9	0.466667425	NUCLEI	lure	n/a	n/a	n/a	1
458.367	0.716651422	LYRICISM	lure	n/a	n/a	n/a	1
459.083	0.733323027	WARDEN	lure	n/a	n/a	n/a	1
459.817	0.350002079	REALITY	lure	n/a	n/a	n/a	1
460.167	0.616650801	SECLUSION	lure	n/a	n/a	n/a	1
460.783	0.701544543	GALE	lure	n/a	n/a	n/a	1
461.485	0.715104809	GENIE	lure	n/a	n/a	n/a	1
462.2	0.333407171	TRUCE	lure	n/a	n/a	n/a	1
462.533	0.716583975	DETENTION	lure	n/a	n/a	n/a	1
463.25	0.500038049	WAD	lure	n/a	n/a	n/a	1
463.75	0.516614677	INDICATION	lure	n/a	n/a	n/a	1
464.267	0.383322518	PEACE	lure	n/a	n/a	n/a	1
464.65	n/a	FIASCO	lure	n/a	n/a	n/a	1