onset	duration	stim	cond	RT	resp	cresp	acc
4.051	0.549277235	AUTOGRAPH	lure	n/a	n/a	n/a	1
4.6	0.733319513	CALFSKIN	lure	n/a	n/a	n/a	1
5.334	0.750039653	ZEPPELIN	lure	n/a	n/a	n/a	1
6.084	0.416611578	ROVER	lure	n/a	n/a	n/a	1
6.5	0.683324053	KETTLE	lure	n/a	n/a	n/a	1
7.183	0.699990064	ESCALATOR	lure	n/a	n/a	n/a	1
7.883	1.016653581	PLUM	fruit	546	2	2	1
8.9	0.699990343	TRACER	lure	n/a	n/a	n/a	1
9.6	0.483326803	TRIBALISM	lure	n/a	n/a	n/a	1
10.083	0.366661749	ITINERARY	lure	n/a	n/a	n/a	1
10.45	0.599991137	KICKER	lure	n/a	n/a	n/a	1
11.05	0.333330393	REUNION	lure	n/a	n/a	n/a	1
11.383	0.366662125	PASSERBY	lure	n/a	n/a	n/a	1
11.75	0.666658025	HULA	lure	n/a	n/a	n/a	1
12.417	0.38332548	MAYONNAISE	lure	n/a	n/a	n/a	1
12.8	0.716657557	CHIEFTAIN	lure	n/a	n/a	n/a	1
13.517	0.383329205	DRAGNET	lure	n/a	n/a	n/a	1
13.9	0.633325492	HEADWAY	lure	n/a	n/a	n/a	1
14.533	0.366716465	EVERYONE	lure	n/a	n/a	n/a	1
14.9	0.666658261	BAPTISM	lure	n/a	n/a	n/a	1
15.567	0.583268871	HOOD	lure	n/a	n/a	n/a	1
16.15	1.018404311	CRANBERRY	fruit	543	2	2	1
17.168	0.648238569	COMMUNION	lure	n/a	n/a	n/a	1
17.817	0.316723369	MIRAGE	lure	n/a	n/a	n/a	1
18.133	0.433267494	MANDIBLE	lure	n/a	n/a	n/a	1
18.567	0.316663865	INCUBATOR	lure	n/a	n/a	n/a	1
18.883	0.466659992	GUST	lure	n/a	n/a	n/a	1
19.35	0.366663011	COINAGE	lure	n/a	n/a	n/a	1
19.717	0.516656563	HUNK	lure	n/a	n/a	n/a	1
20.233	0.533325308	POSER	lure	n/a	n/a	n/a	1
20.767	0.583325914	BAGGAGE	lure	n/a	n/a	n/a	1
21.35	0.566660945	PRIMATE	lure	n/a	n/a	n/a	1
21.917	0.550047141	CONFIDENCE	lure	n/a	n/a	n/a	1
22.467	0.619510861	GOSPEL	lure	n/a	n/a	n/a	1
23.086	0.33041932	WHIMSY	lure	n/a	n/a	n/a	1
23.417	0.716657758	OCEAN	lure	n/a	n/a	n/a	1
24.133	0.583325077	JACKRABBIT	lure	n/a	n/a	n/a	1
24.717	2.016640591	STAPLE	long	n/a	n/a	n/a	1
26.733	0.599990511	ERA	lure	n/a	n/a	n/a	1
27.333	0.59999144	THICKET	lure	n/a	n/a	n/a	1
27.933	0.533327832	BASEMENT	lure	n/a	n/a	n/a	1
28.467	0.46665926	HELLCAT	lure	n/a	n/a	n/a	1
28.933	0.583328431	UTILITY	lure	n/a	n/a	n/a	1
29.517	0.333383423	CAMISOLE	lure	n/a	n/a	n/a	1
29.85	0.549936309	CONTAINER	lure	n/a	n/a	n/a	1
30.4	0.316660845	UNLOADER	lure	n/a	n/a	n/a	1
30.717	0.383330237	WALLET	lure	n/a	n/a	n/a	1
31.1	0.316663471	SUCROSE	lure	n/a	n/a	n/a	1
31.417	0.499990219	TIMBER	lure	n/a	n/a	n/a	1
31.916	0.787942622	ROYALE	lure	n/a	n/a	n/a	1
32.704	0.678703613	NEIGHBOR	lure	n/a	n/a	n/a	1
33.383	1.01665502	APPLE	fruit	494	2	2	1
34.4	0.483326769	PRESTIGE	lure	n/a	n/a	n/a	1
34.883	0.400051858	SOJOURNER	lure	n/a	n/a	n/a	1
35.283	0.733322138	WASHBASIN	lure	n/a	n/a	n/a	1
36.016	0.335993818	BATTALION	lure	n/a	n/a	n/a	1
36.352	0.363938039	INTERCOM	lure	n/a	n/a	n/a	1
36.716	0.63338468	VERTEX	lure	n/a	n/a	n/a	1
37.35	0.516600141	ION	lure	n/a	n/a	n/a	1
37.866	0.366709826	FAIRYLAND	lure	n/a	n/a	n/a	1
38.233	0.550001629	LAD	lure	n/a	n/a	n/a	1
38.783	0.316662166	ANACONDA	lure	n/a	n/a	n/a	1
39.1	0.383274711	VOYEUR	lure	n/a	n/a	n/a	1
39.483	0.516658447	CODEINE	lure	n/a	n/a	n/a	1
40	0.716653055	PARADIGM	lure	n/a	n/a	n/a	1
40.716	0.399995506	MEDIATION	lure	n/a	n/a	n/a	1
41.116	0.433330404	SPEAKER	lure	n/a	n/a	n/a	1
41.55	0.616655898	GALLON	short	n/a	n/a	n/a	1
42.166	0.366722428	INSTANCE	lure	n/a	n/a	n/a	1
42.533	0.549992559	AMOEBA	lure	n/a	n/a	n/a	1
43.083	0.633329767	NEGLIGENCE	lure	n/a	n/a	n/a	1
43.716	0.466594341	TIPOFF	lure	n/a	n/a	n/a	1
44.183	0.749989604	CONSUMER	lure	n/a	n/a	n/a	1
44.933	0.349995667	HEATHER	lure	n/a	n/a	n/a	1
45.283	0.700058292	JOYSTICK	lure	n/a	n/a	n/a	1
45.983	0.699925573	STARDUST	lure	n/a	n/a	n/a	1
46.683	0.316660983	TUNIC	lure	n/a	n/a	n/a	1
47	0.333327952	FROSTBITE	lure	n/a	n/a	n/a	1
47.333	0.549994006	TITLE	lure	n/a	n/a	n/a	1
47.883	0.433326601	APTITUDE	lure	n/a	n/a	n/a	1
48.316	0.316662582	TURTLE	lure	n/a	n/a	n/a	1
48.633	0.399992831	ENTERPRISE	lure	n/a	n/a	n/a	1
49.033	0.499995342	WAND	lure	n/a	n/a	n/a	1
49.533	2.016638059	BROOM	long	n/a	n/a	n/a	1
51.55	0.499993809	SUCCESSION	lure	n/a	n/a	n/a	1
52.05	0.61665685	POUCH	lure	n/a	n/a	n/a	1
52.666	0.466719311	NUMEROLOGY	lure	n/a	n/a	n/a	1
53.133	0.433269098	PUNISHMENT	lure	n/a	n/a	n/a	1
53.566	0.699990811	PATRIARCHY	lure	n/a	n/a	n/a	1
54.266	0.633324219	FOXHOUND	lure	n/a	n/a	n/a	1
54.9	0.3333281	ACCUSATION	lure	n/a	n/a	n/a	1
55.233	0.716658595	CONFIDANTE	lure	n/a	n/a	n/a	1
55.949	0.500050696	MATINEE	lure	n/a	n/a	n/a	1
56.45	0.349994405	CINDER	lure	n/a	n/a	n/a	1
56.8	0.766598898	DEVOLUTION	lure	n/a	n/a	n/a	1
57.566	0.316722358	SURGERY	lure	n/a	n/a	n/a	1
57.883	0.616598202	RECORD	short	n/a	n/a	n/a	1
58.499	0.533326945	FOREFATHER	lure	n/a	n/a	n/a	1
59.033	0.316722687	MICE	lure	n/a	n/a	n/a	1
59.35	0.449932983	ANIMAL	lure	n/a	n/a	n/a	1
59.799	0.449995391	RECTORY	lure	n/a	n/a	n/a	1
60.249	0.333326609	OFFICER	lure	n/a	n/a	n/a	1
60.583	0.666653548	CHEAPSKATE	lure	n/a	n/a	n/a	1
61.249	0.716661721	LYNX	lure	n/a	n/a	n/a	1
61.966	0.566658456	QUIZMASTER	lure	n/a	n/a	n/a	1
62.533	0.699992518	BORDERLAND	lure	n/a	n/a	n/a	1
63.233	0.683322285	CARNIVAL	lure	n/a	n/a	n/a	1
63.916	0.399994533	COMMUNE	lure	n/a	n/a	n/a	1
64.316	0.537448244	EUPHEMISM	lure	n/a	n/a	n/a	1
64.853	0.412538205	POPPER	lure	n/a	n/a	n/a	1
65.266	0.666659441	RATTLETRAP	lure	n/a	n/a	n/a	1
65.933	0.633383425	GOVERNMENT	lure	n/a	n/a	n/a	1
66.566	0.616598241	PERMIT	short	n/a	n/a	n/a	1
67.183	0.683326301	CONVICTION	lure	n/a	n/a	n/a	1
67.866	0.683322443	REALISM	lure	n/a	n/a	n/a	1
68.549	0.599992615	HAIRLINE	lure	n/a	n/a	n/a	1
69.149	0.599986643	BUNGALOW	lure	n/a	n/a	n/a	1
69.749	0.649997983	RAILROADER	lure	n/a	n/a	n/a	1
70.399	0.583324711	PAIL	lure	n/a	n/a	n/a	1
70.983	0.36666034	STALEMATE	lure	n/a	n/a	n/a	1
71.349	0.583324326	COMMUNITY	lure	n/a	n/a	n/a	1
71.933	0.733323554	TERRYCLOTH	lure	n/a	n/a	n/a	1
72.666	0.316664186	LATTER	lure	n/a	n/a	n/a	1
72.983	0.766654213	RANCHER	lure	n/a	n/a	n/a	1
73.749	0.699993539	HANDCART	lure	n/a	n/a	n/a	1
74.449	0.633321624	ZONE	lure	n/a	n/a	n/a	1
75.083	2.016639348	LIGHT	long	n/a	n/a	n/a	1
77.099	0.616705402	FONDUE	lure	n/a	n/a	n/a	1
77.716	0.616612132	FEDERATION	lure	n/a	n/a	n/a	1
78.333	0.766656045	EUPHORIA	lure	n/a	n/a	n/a	1
79.099	0.666657531	MIDWEEK	lure	n/a	n/a	n/a	1
79.766	0.600036882	BEAST	lure	n/a	n/a	n/a	1
80.366	0.416672785	LINEN	lure	n/a	n/a	n/a	1
80.783	0.616603991	PRECURSOR	lure	n/a	n/a	n/a	1
81.399	0.51665674	CORONATION	lure	n/a	n/a	n/a	1
81.916	0.699991137	HYMNAL	lure	n/a	n/a	n/a	1
82.616	0.383379056	APPENDAGE	lure	n/a	n/a	n/a	1
82.999	0.616606926	SOAP	short	n/a	n/a	n/a	1
83.616	0.416661354	STAGNATION	lure	n/a	n/a	n/a	1
84.032	0.366662463	BOOSTER	lure	n/a	n/a	n/a	1
84.399	0.633323322	DEFECTION	lure	n/a	n/a	n/a	1
85.032	0.366662463	BREEDER	lure	n/a	n/a	n/a	1
85.399	0.583385934	REFERENDUM	lure	n/a	n/a	n/a	1
85.982	0.716595858	TREASURY	lure	n/a	n/a	n/a	1
86.699	0.618475317	VELOCITY	lure	n/a	n/a	n/a	1
87.318	0.731507678	MATURITY	lure	n/a	n/a	n/a	1
88.049	0.733324542	FINGERNAIL	lure	n/a	n/a	n/a	1
88.782	0.733320415	FIREWATER	lure	n/a	n/a	n/a	1
89.516	0.383328159	LOGGER	lure	n/a	n/a	n/a	1
89.899	0.449996491	PEGBOARD	lure	n/a	n/a	n/a	1
90.349	0.5333239	BATTERY	lure	n/a	n/a	n/a	1
90.882	0.3333311	BLOWFISH	lure	n/a	n/a	n/a	1
91.216	0.616656382	SACK	short	n/a	n/a	n/a	1
91.832	0.399995969	NOTHING	lure	n/a	n/a	n/a	1
92.232	0.316661233	CHEESECAKE	lure	n/a	n/a	n/a	1
92.549	0.683324624	STEPLADDER	lure	472	2	n/a	0
93.232	0.516658374	ALE	lure	n/a	n/a	n/a	1
93.749	0.466662769	CONCORD	lure	n/a	n/a	n/a	1
94.216	0.616656287	ADVOCACY	lure	n/a	n/a	n/a	1
94.832	0.733324399	YEAR	lure	n/a	n/a	n/a	1
95.566	0.400050525	SHRUBBERY	lure	n/a	n/a	n/a	1
95.966	0.749935753	SETTER	lure	n/a	n/a	n/a	1
96.716	0.333325641	LIBERALISM	lure	n/a	n/a	n/a	1
97.049	0.616714172	SKY	lure	n/a	n/a	n/a	1
97.666	0.499939011	MERINGUE	lure	n/a	n/a	n/a	1
98.166	0.599990773	YOGA	lure	n/a	n/a	n/a	1
98.766	0.633326788	IMPAIRMENT	lure	n/a	n/a	n/a	1
99.399	0.47099977	WICKET	lure	n/a	n/a	n/a	1
99.87	2.012298339	ASHES	long	n/a	n/a	n/a	1
101.882	0.466656316	VIPER	lure	n/a	n/a	n/a	1
102.349	0.34999929	CUCKOO	lure	n/a	n/a	n/a	1
102.699	0.749991234	ANVIL	lure	n/a	n/a	n/a	1
103.449	0.433327268	SEA	lure	n/a	n/a	n/a	1
103.882	0.349990817	DECORATION	lure	n/a	n/a	n/a	1
104.232	0.533328544	PLURALITY	lure	n/a	n/a	n/a	1
104.766	0.416663271	SLUGGER	lure	n/a	n/a	n/a	1
105.182	0.653642111	RHEUMATISM	lure	n/a	n/a	n/a	1
105.836	0.729725354	LOCALE	lure	n/a	n/a	n/a	1
106.566	0.533273444	CREWMAN	lure	n/a	n/a	n/a	1
107.099	0.516657111	NIP	lure	n/a	n/a	n/a	1
107.615	0.616658317	HARLOT	lure	n/a	n/a	n/a	1
108.232	2.016640123	SAWDUST	long	n/a	n/a	n/a	1
110.249	0.683326333	INVALID	lure	n/a	n/a	n/a	1
110.932	0.483323718	DEBTOR	lure	n/a	n/a	n/a	1
111.415	0.349996017	LINER	lure	n/a	n/a	n/a	1
111.765	0.399993585	CADDIE	lure	n/a	n/a	n/a	1
112.165	0.600049979	ARROGANCE	lure	n/a	n/a	n/a	1
112.765	0.416603595	CONTOUR	lure	n/a	n/a	n/a	1
113.182	0.716656442	STAIR	lure	n/a	n/a	n/a	1
113.899	0.366662876	ELECTORATE	lure	n/a	n/a	n/a	1
114.265	0.46665986	FIN	lure	n/a	n/a	n/a	1
114.732	0.499993104	FEMINISM	lure	n/a	n/a	n/a	1
115.232	0.36671856	GLADIATOR	lure	n/a	n/a	n/a	1
115.599	0.433271682	TIER	lure	n/a	n/a	n/a	1
116.032	0.449993241	MACHINERY	lure	n/a	n/a	n/a	1
116.482	2.016638591	FLEET	long	n/a	n/a	n/a	1
118.499	0.733324319	GRENADE	lure	n/a	n/a	n/a	1
119.232	0.633325838	LAMP	lure	n/a	n/a	n/a	1
119.865	0.733324374	PRAT	lure	n/a	n/a	n/a	1
120.599	0.633322324	ABODE	lure	n/a	n/a	n/a	1
121.232	0.333329451	FLUIDITY	lure	n/a	n/a	n/a	1
121.565	0.683323293	FATHERHOOD	lure	n/a	n/a	n/a	1
122.249	0.516660813	MAKEUP	lure	n/a	n/a	n/a	1
122.765	0.483325585	TEA	lure	n/a	n/a	n/a	1
123.249	0.516718979	RIPTIDE	lure	n/a	n/a	n/a	1
123.765	0.549933521	ECOSYSTEM	lure	n/a	n/a	n/a	1
124.315	0.549994278	MIDGET	lure	n/a	n/a	n/a	1
124.865	0.616658844	SHELL	short	n/a	n/a	n/a	1
125.482	0.420539146	KOALA	lure	n/a	n/a	n/a	1
125.902	0.796108205	WICKERWORK	lure	n/a	n/a	n/a	1
126.699	0.699992325	WEAKLING	lure	n/a	n/a	n/a	1
127.399	0.433325732	ADVERB	lure	n/a	n/a	n/a	1
127.832	0.483328786	GEOLOGIST	lure	n/a	n/a	n/a	1
128.315	0.454577526	PROTEGEE	lure	n/a	n/a	n/a	1
128.77	0.612072462	SPIDER	lure	n/a	n/a	n/a	1
129.382	0.416663239	TEXT	lure	n/a	n/a	n/a	1
129.798	0.666716536	CALYPSO	lure	n/a	n/a	n/a	1
130.465	0.733321588	SOLUTION	lure	n/a	n/a	n/a	1
131.199	0.316603947	INHIBITION	lure	n/a	n/a	n/a	1
131.515	0.766656294	BUCKSKIN	lure	n/a	n/a	n/a	1
132.282	0.333378383	GERM	lure	n/a	n/a	n/a	1
132.615	0.45106482	OBSESSION	lure	n/a	n/a	n/a	1
133.066	0.615537179	CANDLE	short	n/a	n/a	n/a	1
133.682	0.516661777	FLUTIST	lure	n/a	n/a	n/a	1
134.198	0.56670513	TURNOFF	lure	n/a	n/a	n/a	1
134.765	0.399946901	LOTTERY	lure	n/a	n/a	n/a	1
135.165	0.549991669	SNOB	lure	n/a	n/a	n/a	1
135.715	0.466660965	ALTITUDE	lure	n/a	n/a	n/a	1
136.182	0.566720441	AVALANCHE	lure	n/a	n/a	n/a	1
136.748	0.383265903	BUTTERNUT	lure	n/a	n/a	n/a	1
137.132	0.500053282	PENMANSHIP	lure	n/a	n/a	n/a	1
137.632	0.366601744	CAT	lure	n/a	n/a	n/a	1
137.998	0.54999305	SINCERITY	lure	n/a	n/a	n/a	1
138.548	0.700047493	WRIST	lure	n/a	n/a	n/a	1
139.248	0.633314116	SECULARISM	lure	n/a	n/a	n/a	1
139.882	0.483281022	CASEBOOK	lure	n/a	n/a	n/a	1
140.365	0.366660618	MOBSTER	lure	n/a	n/a	n/a	1
140.732	0.483326976	ETHYL	lure	n/a	n/a	n/a	1
141.215	2.016639845	ATLAS	long	n/a	n/a	n/a	1
143.232	0.599991883	TORNADO	lure	n/a	n/a	n/a	1
143.832	0.433384534	ATTIRE	lure	n/a	n/a	n/a	1
144.265	0.633266828	SUPPLIER	lure	n/a	n/a	n/a	1
144.898	0.750046925	FIGHTER	lure	n/a	n/a	n/a	1
145.648	0.651384362	BUN	lure	n/a	n/a	n/a	1
146.3	0.581875475	REGULATION	lure	n/a	n/a	n/a	1
146.882	0.633324881	FIREBUG	lure	n/a	n/a	n/a	1
147.515	0.41666181	HOOPLA	lure	n/a	n/a	n/a	1
147.932	0.549994481	JAR	lure	n/a	n/a	n/a	1
148.482	0.399992284	RETAKE	lure	n/a	n/a	n/a	1
148.882	0.616658914	MONOGAMY	lure	n/a	n/a	n/a	1
149.498	1.016653613	GRAPE	fruit	611	2	2	1
150.515	0.533325116	LANDSLIDE	lure	n/a	n/a	n/a	1
151.048	0.466659543	PINSTRIPE	lure	n/a	n/a	n/a	1
151.515	0.383329378	VALVE	lure	n/a	n/a	n/a	1
151.898	0.553973938	MORALE	lure	n/a	n/a	n/a	1
152.452	0.346014244	BUSH	lure	n/a	n/a	n/a	1
152.798	0.333329639	SOUVENIR	lure	n/a	n/a	n/a	1
153.132	0.700043641	NECKBAND	lure	n/a	n/a	n/a	1
153.832	0.333331399	CANDLEWICK	lure	n/a	n/a	n/a	1
154.165	0.499935663	MILKSHAKE	lure	n/a	n/a	n/a	1
154.665	0.733323354	SUBHEADING	lure	n/a	n/a	n/a	1
155.398	0.34999514	HABIT	lure	n/a	n/a	n/a	1
155.748	0.649990978	FOOLERY	lure	n/a	n/a	n/a	1
156.398	0.383329575	INERTIA	lure	n/a	n/a	n/a	1
156.781	0.399995818	FAIRGROUND	lure	n/a	n/a	n/a	1
157.181	0.466657075	GOTHICISM	lure	n/a	n/a	n/a	1
157.648	2.016640435	CART	long	n/a	n/a	n/a	1
159.665	0.433383617	ABSTENTION	lure	n/a	n/a	n/a	1
160.098	0.366604699	ENCLAVE	lure	n/a	n/a	n/a	1
160.465	0.399994589	BREAKWATER	lure	n/a	n/a	n/a	1
160.865	0.716659074	BLOWTORCH	lure	n/a	n/a	n/a	1
161.581	0.733321771	MAXIMA	lure	n/a	n/a	n/a	1
162.315	0.61666063	CHARADE	lure	n/a	n/a	n/a	1
162.931	0.366659355	PORTION	lure	n/a	n/a	n/a	1
163.298	0.716652604	CASUALTY	lure	n/a	n/a	n/a	1
164.015	0.416665483	JEOPARDY	lure	n/a	n/a	n/a	1
164.431	0.466714281	PERSONAGE	lure	n/a	n/a	n/a	1
164.898	0.683327864	REINDEER	lure	n/a	n/a	n/a	1
165.581	0.383270833	TROPHY	lure	n/a	n/a	n/a	1
165.965	1.050029037	BANANA	fruit	568	2	2	1
167.015	0.51661684	RENOVATION	lure	n/a	n/a	n/a	1
167.531	0.700048831	MARLIN	lure	n/a	n/a	n/a	1
168.231	0.766598316	HANDIWORK	lure	n/a	n/a	n/a	1
168.998	0.383326448	LOGICIAN	lure	n/a	n/a	n/a	1
169.381	0.55005019	WATCHMEN	lure	n/a	n/a	n/a	1
169.931	0.716601766	SALTER	lure	n/a	n/a	n/a	1
170.648	0.500048054	INEQUITY	lure	n/a	n/a	n/a	1
171.148	0.333328561	CUTICLE	lure	n/a	n/a	n/a	1
171.481	0.699930869	HAT	lure	n/a	n/a	n/a	1
172.181	0.649993542	COUPLET	lure	n/a	n/a	n/a	1
172.831	0.616658405	ELEPHANT	lure	n/a	n/a	n/a	1
173.448	0.416663085	HAY	lure	n/a	n/a	n/a	1
173.865	2.01663824	CHALK	long	n/a	n/a	n/a	1
175.881	0.566659559	SUITE	lure	n/a	n/a	n/a	1
176.448	0.499993763	GOLFING	lure	n/a	n/a	n/a	1
176.948	0.45004901	AXLE	lure	n/a	n/a	n/a	1
177.398	0.699933385	PHENOMENA	lure	n/a	n/a	n/a	1
178.098	0.733320391	ARSON	lure	n/a	n/a	n/a	1
178.831	0.433330505	CATACOMB	lure	n/a	n/a	n/a	1
179.264	0.399994289	PLUNGER	lure	n/a	n/a	n/a	1
179.664	0.433329735	MAXIMUM	lure	n/a	n/a	n/a	1
180.098	0.433325484	COHESION	lure	n/a	n/a	n/a	1
180.531	0.516660672	MOWER	lure	n/a	n/a	n/a	1
181.048	0.383328877	BLAZER	lure	n/a	n/a	n/a	1
181.431	0.749988336	TAXICAB	lure	n/a	n/a	n/a	1
182.181	0.466662654	GLYCERINE	lure	n/a	n/a	n/a	1
182.648	1.016652891	ORANGE	fruit	541	2	2	1
183.664	0.633323981	DOCKET	lure	n/a	n/a	n/a	1
184.298	0.433323351	HENCHMEN	lure	n/a	n/a	n/a	1
184.731	0.799992907	WIDOWER	lure	n/a	n/a	n/a	1
185.531	0.749989031	CAREERISM	lure	n/a	n/a	n/a	1
186.281	0.316661421	ALTAR	lure	n/a	n/a	n/a	1
186.598	0.349995195	BRAZIER	lure	n/a	n/a	n/a	1
186.948	0.399996557	STOREROOM	lure	n/a	n/a	n/a	1
187.348	0.399993575	TOUCHSTONE	lure	n/a	n/a	n/a	1
187.748	0.433323356	JAG	lure	n/a	n/a	n/a	1
188.181	0.483392295	STARFISH	lure	n/a	n/a	n/a	1
188.664	0.666598416	ENORMITY	lure	n/a	n/a	n/a	1
189.331	0.549989742	PANTHEON	lure	n/a	n/a	n/a	1
189.881	0.750038276	BUGGY	lure	n/a	n/a	n/a	1
190.631	0.466614536	ORGANIST	lure	n/a	n/a	n/a	1
191.098	0.616656793	CHROME	short	n/a	n/a	n/a	1
191.714	0.702757471	DEPOT	lure	n/a	n/a	n/a	1
192.417	0.530556349	CUTTER	lure	n/a	n/a	n/a	1
192.948	0.650053223	BRICKYARD	lure	n/a	n/a	n/a	1
193.598	0.333329035	MAPLE	lure	n/a	n/a	n/a	1
193.931	0.749929284	LUSTRE	lure	n/a	n/a	n/a	1
194.681	0.749995097	DESIGNER	lure	n/a	n/a	n/a	1
195.431	0.71665393	BEEFSTEAK	lure	n/a	n/a	n/a	1
196.148	0.38332641	HIDEAWAY	lure	n/a	n/a	n/a	1
196.531	0.566657192	CAPSULE	lure	n/a	n/a	n/a	1
197.098	0.750041131	CALIPER	lure	n/a	n/a	n/a	1
197.848	0.499942809	ENCAMPMENT	lure	n/a	n/a	n/a	1
198.348	0.466662022	WIPER	lure	n/a	n/a	n/a	1
198.814	0.333327551	SEGMENT	lure	n/a	n/a	n/a	1
199.148	0.616658786	CONTRACT	short	n/a	n/a	n/a	1
199.764	0.7333259	MATRIMONY	lure	n/a	n/a	n/a	1
200.498	0.416657903	CELLIST	lure	n/a	n/a	n/a	1
200.914	0.483373974	LADDER	lure	n/a	n/a	n/a	1
201.398	0.699944719	STOOL	lure	n/a	n/a	n/a	1
202.098	0.38332673	BIRTHDAY	lure	n/a	n/a	n/a	1
202.481	0.316663502	DISHWASHER	lure	n/a	n/a	n/a	1
202.798	0.616658502	INTRUDER	lure	n/a	n/a	n/a	1
203.414	0.516720477	SPECTATOR	lure	n/a	n/a	n/a	1
203.931	0.683265085	WILDCAT	lure	n/a	n/a	n/a	1
204.614	0.436620728	SUBMARINE	lure	n/a	n/a	n/a	1
205.051	0.613362877	OTTOMAN	lure	n/a	n/a	n/a	1
205.664	0.500052302	BOWMAN	lure	n/a	n/a	n/a	1
206.164	0.649931231	SALMON	lure	n/a	n/a	n/a	1
206.814	0.350054401	IMPUDENCE	lure	n/a	n/a	n/a	1
207.164	2.016577629	PASTEL	long	n/a	n/a	n/a	1
209.181	0.483329903	RUBBER	lure	n/a	n/a	n/a	1
209.664	0.483327842	TURNCOAT	lure	n/a	n/a	n/a	1
210.147	0.533327617	DUMBBELL	lure	n/a	n/a	n/a	1
210.681	0.483323803	PERJURY	lure	n/a	n/a	n/a	1
211.164	0.366661601	CARTWHEEL	lure	n/a	n/a	n/a	1
211.531	0.749990742	COMA	lure	n/a	n/a	n/a	1
212.281	0.71665724	GREED	lure	n/a	n/a	n/a	1
212.997	0.416660171	MESSENGER	lure	n/a	n/a	n/a	1
213.414	0.533373984	IMPACT	lure	n/a	n/a	n/a	1
213.947	0.433279924	FOODSTUFF	lure	n/a	n/a	n/a	1
214.381	0.399991372	LICENSEE	lure	n/a	n/a	n/a	1
214.781	0.73414284	CONVEYOR	lure	n/a	n/a	n/a	1
215.515	0.61584227	FLAPPER	lure	n/a	n/a	n/a	1
216.131	0.61665452	BRACELET	short	n/a	n/a	n/a	1
216.747	0.51666574	CORNCOB	lure	n/a	n/a	n/a	1
217.264	0.433324619	EPIDEMIC	lure	n/a	n/a	n/a	1
217.697	0.683385832	NEBULA	lure	n/a	n/a	n/a	1
218.381	0.466658287	VIEWFINDER	lure	n/a	n/a	n/a	1
218.847	0.58332522	ROADBED	lure	n/a	n/a	n/a	1
219.431	0.433267955	SUNSHINE	lure	n/a	n/a	n/a	1
219.864	0.333328644	LEOPARD	lure	n/a	n/a	n/a	1
220.197	0.650047179	DOWNTREND	lure	n/a	n/a	n/a	1
220.847	0.433272063	CHAPEL	lure	n/a	n/a	n/a	1
221.281	0.316662414	HARMONICA	lure	n/a	n/a	n/a	1
221.597	0.449993305	HYDROPLANE	lure	n/a	n/a	n/a	1
222.047	0.617382886	BARRIER	lure	n/a	n/a	n/a	1
222.665	0.665991383	CEREMONY	lure	n/a	n/a	n/a	1
223.331	0.716598423	BETRAYAL	lure	n/a	n/a	n/a	1
224.047	0.383328964	DISCUSSION	lure	n/a	n/a	n/a	1
224.431	0.366661625	UPTAKE	lure	n/a	n/a	n/a	1
224.797	0.666658755	INTRO	lure	n/a	n/a	n/a	1
225.464	0.716716184	CRUSHER	lure	n/a	n/a	n/a	1
226.181	0.699930601	STARTER	lure	n/a	n/a	n/a	1
226.881	n/a	LEGISLATOR	lure	n/a	n/a	n/a	1
238.014	0.416723041	AMAZEMENT	lure	n/a	n/a	n/a	1
238.43	0.466597921	SHOPKEEPER	lure	n/a	n/a	n/a	1
238.897	0.483327082	INGREDIENT	lure	n/a	n/a	n/a	1
239.38	0.599991425	SKATER	lure	n/a	n/a	n/a	1
239.98	0.666660226	INACTION	lure	n/a	n/a	n/a	1
240.647	0.366659894	TRACT	lure	n/a	n/a	n/a	1
241.014	0.499992768	OFFENDER	lure	n/a	n/a	n/a	1
241.514	0.616658076	BRACELET	short	n/a	n/a	n/a	1
242.13	0.366661769	OCCUPATION	lure	n/a	n/a	n/a	1
242.497	0.699990708	HEADWIND	lure	n/a	n/a	n/a	1
243.197	0.333328667	TONGUE	lure	n/a	n/a	n/a	1
243.53	0.616660683	MISTER	lure	n/a	n/a	n/a	1
244.147	0.56671832	GROWER	lure	n/a	n/a	n/a	1
244.714	0.449932166	LANDMARK	lure	n/a	n/a	n/a	1
245.164	0.599992433	RESOURCE	lure	n/a	n/a	n/a	1
245.764	0.333331009	PEELER	lure	n/a	n/a	n/a	1
246.097	0.533323527	LINGUIST	lure	n/a	n/a	n/a	1
246.63	0.466660621	PINTO	lure	n/a	n/a	n/a	1
247.097	0.466660889	TRACHEA	lure	n/a	n/a	n/a	1
247.564	0.76665588	COLONEL	lure	n/a	n/a	n/a	1
248.33	0.483326378	WARREN	lure	n/a	n/a	n/a	1
248.814	0.666657476	INTERLINK	lure	n/a	n/a	n/a	1
249.48	0.433327163	DEBASEMENT	lure	n/a	n/a	n/a	1
249.914	1.018995582	BANANA	fruit	555	2	2	1
250.933	0.330986375	CHECKLIST	lure	n/a	n/a	n/a	1
251.264	0.633327414	LEGEND	lure	n/a	n/a	n/a	1
251.897	0.383326057	NOVA	lure	n/a	n/a	n/a	1
252.28	0.483326497	OPINION	lure	n/a	n/a	n/a	1
252.763	0.516660455	SCENARIO	lure	n/a	n/a	n/a	1
253.28	0.68332529	DAFFODIL	lure	n/a	n/a	n/a	1
253.963	0.73332133	PATHWAY	lure	n/a	n/a	n/a	1
254.697	0.449996523	DIFFUSION	lure	n/a	n/a	n/a	1
255.147	0.316660036	BURGLAR	lure	n/a	n/a	n/a	1
255.463	0.533326278	ANNULMENT	lure	n/a	n/a	n/a	1
255.997	0.599993974	CONTROLLER	lure	n/a	n/a	n/a	1
256.597	0.483385498	LOBBYIST	lure	n/a	n/a	n/a	1
257.08	0.99998283	FISSURE	lure	n/a	n/a	n/a	1
258.08	0.766601351	MAGNESIA	lure	n/a	n/a	n/a	1
258.847	0.616658357	SHELL	short	n/a	n/a	n/a	1
259.463	0.733321993	ALMANAC	lure	n/a	n/a	n/a	1
260.197	0.43332286	GLIDER	lure	n/a	n/a	n/a	1
260.63	0.549998376	BLUEFISH	lure	n/a	n/a	n/a	1
261.18	0.550128549	BAMBINO	lure	n/a	n/a	n/a	1
261.73	0.583189894	ARMLOAD	lure	n/a	n/a	n/a	1
262.313	0.466653656	IMPLOSION	lure	n/a	n/a	n/a	1
262.78	0.566709747	COMMENTARY	lure	n/a	n/a	n/a	1
263.347	0.699940859	STOKER	lure	n/a	n/a	n/a	1
264.047	0.583327392	BUDDY	lure	n/a	n/a	n/a	1
264.63	0.699992819	PAPRIKA	lure	n/a	n/a	n/a	1
265.33	0.499992508	REFINEMENT	lure	n/a	n/a	n/a	1
265.83	0.616655656	CHICKENPOX	lure	n/a	n/a	n/a	1
266.447	0.34999663	GEM	lure	n/a	n/a	n/a	1
266.797	2.016638042	STAPLE	long	n/a	n/a	n/a	1
268.813	0.766661096	ANYBODY	lure	n/a	n/a	n/a	1
269.58	0.433324491	INGESTION	lure	n/a	n/a	n/a	1
270.013	0.43332697	WORKBASKET	lure	n/a	n/a	n/a	1
270.447	0.449999369	ECLIPSE	lure	n/a	n/a	n/a	1
270.897	0.366658929	SMUDGE	lure	n/a	n/a	n/a	1
271.263	0.733320296	GIGGLE	lure	n/a	n/a	n/a	1
271.997	0.583327335	MAYOR	lure	n/a	n/a	n/a	1
272.58	0.33332701	LAUREL	lure	n/a	n/a	n/a	1
272.913	0.599992132	BLACKBOARD	lure	n/a	n/a	n/a	1
273.513	0.433332048	THRUSTER	lure	n/a	n/a	n/a	1
273.947	0.366658939	ONSET	lure	n/a	n/a	n/a	1
274.313	0.499994144	YELLER	lure	n/a	n/a	n/a	1
274.813	1.018596639	MELON	fruit	688	2	2	1
275.832	0.68144026	ACETATE	lure	n/a	n/a	n/a	1
276.513	0.683258178	TIRADE	lure	n/a	n/a	n/a	1
277.196	0.366663617	EPIPHANY	lure	n/a	n/a	n/a	1
277.563	0.766657796	METRO	lure	n/a	n/a	n/a	1
278.33	0.316726053	DECANTER	lure	n/a	n/a	n/a	1
278.647	0.70037986	PRETEXT	lure	n/a	n/a	n/a	1
279.347	0.53300332	BANDAGE	lure	n/a	n/a	n/a	1
279.88	0.716525841	HILT	lure	n/a	n/a	n/a	1
280.596	0.399994933	CONSULATE	lure	n/a	n/a	n/a	1
280.996	0.749991562	SUBVERSION	lure	n/a	n/a	n/a	1
281.746	0.554810797	CORNSTARCH	lure	n/a	n/a	n/a	1
282.301	0.461841914	INTRICACY	lure	n/a	n/a	n/a	1
282.763	2.016639026	FLEET	long	n/a	n/a	n/a	1
284.78	0.69998984	BUTLER	lure	n/a	n/a	n/a	1
285.48	0.549995264	GENEALOGY	lure	n/a	n/a	n/a	1
286.03	0.74998691	UPSHOT	lure	n/a	n/a	n/a	1
286.78	0.416727427	ACE	lure	n/a	n/a	n/a	1
287.196	0.516592905	CONCAVITY	lure	n/a	n/a	n/a	1
287.713	0.733327847	AUDIENCE	lure	n/a	n/a	n/a	1
288.446	0.466657933	AMBIENCE	lure	n/a	n/a	n/a	1
288.913	0.583323937	TENT	lure	n/a	n/a	n/a	1
289.496	0.649988614	WATERLINE	lure	n/a	n/a	n/a	1
290.146	0.666660125	INSPECTOR	lure	n/a	n/a	n/a	1
290.813	2.049971814	PASTEL	long	n/a	n/a	n/a	1
292.863	0.633382102	BERET	lure	n/a	n/a	n/a	1
293.496	0.366607361	CORNFLAKE	lure	n/a	n/a	n/a	1
293.863	0.56670978	NUNNERY	lure	n/a	n/a	n/a	1
294.43	0.716602876	MARE	lure	n/a	n/a	n/a	1
295.146	0.43337954	INSECURITY	lure	n/a	n/a	n/a	1
295.58	0.437004783	REVOLVER	lure	n/a	n/a	n/a	1
296.017	0.56293111	CROSSWALK	lure	n/a	n/a	n/a	1
296.58	0.633322433	SUMMATION	lure	n/a	n/a	n/a	1
297.213	0.350092851	CARVER	lure	n/a	n/a	n/a	1
297.563	0.716561029	EXEMPTION	lure	n/a	n/a	n/a	1
298.28	0.683325222	FINALE	lure	n/a	n/a	n/a	1
298.963	0.61665993	CANDLE	short	n/a	n/a	n/a	1
299.58	0.616655074	HALFTONE	lure	n/a	n/a	n/a	1
300.196	0.416658103	INCUBATION	lure	n/a	n/a	n/a	1
300.613	0.599995614	DIVIDER	lure	n/a	n/a	n/a	1
301.213	0.766659151	SMOG	lure	n/a	n/a	n/a	1
301.98	0.41665779	UNTRUTH	lure	n/a	n/a	n/a	1
302.396	0.41671968	ASCENDANCY	lure	n/a	n/a	n/a	1
302.813	0.583267305	COACHMEN	lure	n/a	n/a	n/a	1
303.396	0.583382245	PSYCHOLOGY	lure	n/a	n/a	n/a	1
303.98	0.433327291	SHERIFF	lure	n/a	n/a	n/a	1
304.413	0.503796225	HUNTER	lure	n/a	n/a	n/a	1
304.917	0.662858493	AIRWAY	lure	n/a	n/a	n/a	1
305.58	0.483267733	STINT	lure	n/a	n/a	n/a	1
306.063	0.366661426	STICKLER	lure	n/a	n/a	n/a	1
306.429	0.583323909	BIOLOGY	lure	n/a	n/a	n/a	1
307.013	0.616657241	SACK	short	n/a	n/a	n/a	1
307.629	0.716657423	VIOLET	lure	n/a	n/a	n/a	1
308.346	0.733321867	BLOWHOLE	lure	n/a	n/a	n/a	1
309.079	0.449996074	ARCADE	lure	n/a	n/a	n/a	1
309.529	0.466661322	MANHOLE	lure	n/a	n/a	n/a	1
309.996	0.749989191	LEOTARD	lure	n/a	n/a	n/a	1
310.746	0.416721848	COUNCIL	lure	n/a	n/a	n/a	1
311.163	0.416596672	BROTH	lure	n/a	n/a	n/a	1
311.579	0.683327634	PAYMASTER	lure	n/a	n/a	n/a	1
312.263	0.599991836	REAM	lure	n/a	n/a	n/a	1
312.863	0.549992276	HAILSTONE	lure	n/a	n/a	n/a	1
313.413	0.549994495	CASTE	lure	n/a	n/a	n/a	1
313.963	0.651783047	HIGHLAND	lure	n/a	n/a	n/a	1
314.614	0.531532256	TORPEDO	lure	n/a	n/a	n/a	1
315.146	1.016655428	BANANA	fruit	571	2	2	1
316.163	0.483325678	PROTRUSION	lure	n/a	n/a	n/a	1
316.646	0.533326136	PINUP	lure	n/a	n/a	n/a	1
317.179	0.466660558	PRISM	lure	n/a	n/a	n/a	1
317.646	0.699986818	MYTHOLOGY	lure	n/a	n/a	n/a	1
318.346	0.716661328	EYETEETH	lure	n/a	n/a	n/a	1
319.063	0.316720028	FACTION	lure	n/a	n/a	n/a	1
319.379	0.59999144	RATIO	lure	n/a	n/a	n/a	1
319.979	0.649994592	AMMO	lure	n/a	n/a	n/a	1
320.629	0.466597666	CLEMENCY	lure	n/a	n/a	n/a	1
321.096	0.350055737	SHIRE	lure	n/a	n/a	n/a	1
321.446	0.399935555	SIDELINE	lure	n/a	n/a	n/a	1
321.846	0.68332433	OBSCURITY	lure	n/a	n/a	n/a	1
322.529	0.749988602	INTRUSION	lure	n/a	n/a	n/a	1
323.279	0.699991689	NUANCE	lure	n/a	n/a	n/a	1
323.979	2.016638052	SAWDUST	long	n/a	n/a	n/a	1
325.996	0.733321655	LEAGUE	lure	n/a	n/a	n/a	1
326.729	0.366665796	OBSTACLE	lure	n/a	n/a	n/a	1
327.096	0.69998739	WINDSHIELD	lure	n/a	n/a	n/a	1
327.796	0.666658369	BACKSTROKE	lure	n/a	n/a	n/a	1
328.462	0.666658681	WRIGHT	lure	n/a	n/a	n/a	1
329.129	0.383382626	TIMEPIECE	lure	n/a	n/a	n/a	1
329.513	0.535191326	KNOTHOLE	lure	n/a	n/a	n/a	1
330.048	0.398127645	DIVINITY	lure	n/a	n/a	n/a	1
330.446	0.649938459	EARTHQUAKE	lure	n/a	n/a	n/a	1
331.096	0.699988969	ADDRESSEE	lure	n/a	n/a	n/a	1
331.796	0.649994866	SUITCASE	lure	n/a	n/a	n/a	1
332.446	2.016634987	CHALK	long	n/a	n/a	n/a	1
334.462	0.666658515	ALBINO	lure	n/a	n/a	n/a	1
335.129	0.716657496	INCURSION	lure	n/a	n/a	n/a	1
335.846	0.549994228	CLOSEOUT	lure	n/a	n/a	n/a	1
336.396	0.333384827	SETBACK	lure	n/a	n/a	n/a	1
336.729	0.316605065	STRAINER	lure	n/a	n/a	n/a	1
337.046	0.683386712	SUNDAE	lure	n/a	n/a	n/a	1
337.729	0.619901665	DEFENDER	lure	n/a	n/a	n/a	1
338.349	0.596684743	ALLEGIANCE	lure	n/a	n/a	n/a	1
338.946	0.483329275	LYRICIST	lure	n/a	n/a	n/a	1
339.429	0.649990503	DISPARITY	lure	n/a	n/a	n/a	1
340.079	0.383371451	CEILING	lure	n/a	n/a	n/a	1
340.462	0.649946695	SOAP	short	n/a	n/a	n/a	1
341.112	0.533329582	ANALYST	lure	n/a	n/a	n/a	1
341.646	0.400051968	PARAMETER	lure	n/a	n/a	n/a	1
342.046	0.519771723	RIBBON	lure	n/a	n/a	n/a	1
342.565	0.530153088	TUMBLEWEED	lure	n/a	n/a	n/a	1
343.096	0.716658846	SCOUNDREL	lure	n/a	n/a	n/a	1
343.812	0.566656736	PIGTAIL	lure	n/a	n/a	n/a	1
344.379	0.416658818	STAIRCASE	lure	n/a	n/a	n/a	1
344.796	0.702212333	DEFERENCE	lure	n/a	n/a	n/a	1
345.498	0.414442201	REDSKIN	lure	n/a	n/a	n/a	1
345.912	0.649990591	JEALOUSY	lure	n/a	n/a	n/a	1
346.562	0.500040583	GOLDMINE	lure	n/a	n/a	n/a	1
347.062	0.7499876	STALLION	lure	n/a	n/a	n/a	1
347.812	0.366615896	BRUISER	lure	n/a	n/a	n/a	1
348.179	0.71665948	TELEPATHY	lure	n/a	n/a	n/a	1
348.896	0.616654515	GALLON	short	n/a	n/a	n/a	1
349.512	0.416665023	MORSEL	lure	n/a	n/a	n/a	1
349.929	0.466659072	DIGNITY	lure	n/a	n/a	n/a	1
350.396	0.650050206	SPACER	lure	n/a	n/a	n/a	1
351.046	0.766595123	FACSIMILE	lure	n/a	n/a	n/a	1
351.812	0.416661858	ICEBOAT	lure	n/a	n/a	n/a	1
352.229	0.349999591	HERB	lure	n/a	n/a	n/a	1
352.579	0.601791364	HEARTTHROB	lure	n/a	n/a	n/a	1
353.181	0.614915373	HEADMAN	lure	n/a	n/a	n/a	1
353.796	0.649932389	DOMICILE	lure	n/a	n/a	n/a	1
354.445	0.416659715	PALLBEARER	lure	n/a	n/a	n/a	1
354.862	0.616727344	FIBER	lure	n/a	n/a	n/a	1
355.479	0.466591203	DEMON	lure	n/a	n/a	n/a	1
355.945	0.716720096	HOROSCOPE	lure	n/a	n/a	n/a	1
356.662	0.385371824	LYMPH	lure	n/a	n/a	n/a	1
357.048	0.647885195	PERMIT	short	n/a	n/a	n/a	1
357.695	0.633327718	ASPHALT	lure	n/a	n/a	n/a	1
358.329	0.566654389	JUBILEE	lure	n/a	n/a	n/a	1
358.895	0.533329904	FERTILITY	lure	n/a	n/a	n/a	1
359.429	0.683320789	RAINFALL	lure	n/a	n/a	n/a	1
360.112	0.449993507	WIGHT	lure	n/a	n/a	n/a	1
360.562	0.566657465	RAPPORT	lure	n/a	n/a	n/a	1
361.129	0.38333117	STOCKROOM	lure	n/a	n/a	n/a	1
361.512	0.633323374	EVIDENCE	lure	n/a	n/a	n/a	1
362.145	0.516721061	ELONGATION	lure	n/a	n/a	n/a	1
362.662	0.449933997	ROSEWOOD	lure	n/a	n/a	n/a	1
363.112	0.433327326	SODA	lure	n/a	n/a	n/a	1
363.545	0.63332355	MINELAYER	lure	n/a	n/a	n/a	1
364.179	0.700052032	FACILITY	lure	n/a	n/a	n/a	1
364.879	0.666596624	UNDERDOG	lure	n/a	n/a	n/a	1
365.545	1.016655212	PEAR	fruit	676	2	2	1
366.562	0.533323051	EXPEDIENCY	lure	n/a	n/a	n/a	1
367.095	0.399993941	HAMMOCK	lure	n/a	n/a	n/a	1
367.495	0.483327618	CRYPTOGRAM	lure	n/a	n/a	n/a	1
367.979	0.683326235	AQUARIUM	lure	n/a	n/a	n/a	1
368.662	0.766953296	CRASHER	lure	n/a	n/a	n/a	1
369.429	0.699693307	DISARRAY	lure	n/a	n/a	n/a	1
370.129	0.366660972	MILLENIUM	lure	n/a	n/a	n/a	1
370.495	0.583324741	MASCARA	lure	n/a	n/a	n/a	1
371.079	0.449995658	COLT	lure	n/a	n/a	n/a	1
371.529	0.733321712	COTTONSEED	lure	n/a	n/a	n/a	1
372.262	0.716654891	BYPRODUCT	lure	n/a	n/a	n/a	1
372.979	0.716659014	LIGHTFOOT	lure	n/a	n/a	n/a	1
373.695	2.016636532	ATLAS	long	n/a	n/a	n/a	1
375.712	0.733328836	DOCTORATE	lure	n/a	n/a	n/a	1
376.445	0.716654052	AURORA	lure	n/a	n/a	n/a	1
377.162	0.383327327	GUMBO	lure	n/a	n/a	n/a	1
377.545	0.599991578	WASHCLOTH	lure	n/a	n/a	n/a	1
378.145	0.666658068	TRANCE	lure	n/a	n/a	n/a	1
378.812	0.733325778	RETAILER	lure	n/a	n/a	n/a	1
379.545	0.766655856	SOFTY	lure	n/a	n/a	n/a	1
380.312	0.583321054	TITAN	lure	n/a	n/a	n/a	1
380.895	0.483329053	OUTBURST	lure	n/a	n/a	n/a	1
381.378	0.333328469	ARENA	lure	n/a	n/a	n/a	1
381.712	0.616657463	CHROME	short	n/a	n/a	n/a	1
382.328	0.549994077	WHOOPEE	lure	n/a	n/a	n/a	1
382.878	0.367195987	PROPRIETOR	lure	n/a	n/a	n/a	1
383.246	0.482794803	BEACH	lure	n/a	n/a	n/a	1
383.728	0.599990443	CARRYOVER	lure	n/a	n/a	n/a	1
384.328	0.649987427	KERCHIEF	lure	n/a	n/a	n/a	1
384.978	0.399996815	COLLECTION	lure	n/a	n/a	n/a	1
385.378	0.399998279	NEURON	lure	n/a	n/a	n/a	1
385.778	0.450054704	ROLE	lure	n/a	n/a	n/a	1
386.228	0.449931218	CROUTON	lure	n/a	n/a	n/a	1
386.678	0.583326084	CUPBOARD	lure	n/a	n/a	n/a	1
387.262	0.74998746	MONEYMAKER	lure	n/a	n/a	n/a	1
388.012	0.749991018	ANECDOTE	lure	n/a	n/a	n/a	1
388.762	0.420611156	RETHINK	lure	n/a	n/a	n/a	1
389.182	0.412714664	AFFECTION	lure	n/a	n/a	n/a	1
389.595	0.349991887	ELLIPSE	lure	n/a	n/a	n/a	1
389.945	1.016653418	BLUEBERRY	fruit	796	2	2	1
390.962	0.699991178	TRINITY	lure	n/a	n/a	n/a	1
391.662	0.450042263	BIPLANE	lure	n/a	n/a	n/a	1
392.112	0.683322633	ROTATION	lure	n/a	n/a	n/a	1
392.795	0.516610492	NOTEPAPER	lure	n/a	n/a	n/a	1
393.312	0.533325642	TAKEOVER	lure	n/a	n/a	n/a	1
393.845	0.316662808	LEGALISM	lure	n/a	n/a	n/a	1
394.162	0.616658625	CONIFER	lure	n/a	n/a	n/a	1
394.778	0.533369938	GATEHOUSE	lure	n/a	n/a	n/a	1
395.312	0.516611507	GOVERNANCE	lure	n/a	n/a	n/a	1
395.828	0.366729448	COMPULSION	lure	n/a	n/a	n/a	1
396.195	0.633264329	VAPOR	lure	n/a	n/a	n/a	1
396.828	0.666654724	BOATLOAD	lure	n/a	n/a	n/a	1
397.495	0.44999312	BUILDUP	lure	n/a	n/a	n/a	1
397.945	0.31672488	DEFEATISM	lure	n/a	n/a	n/a	1
398.262	2.049910152	LIGHT	long	n/a	n/a	n/a	1
400.311	0.616657555	SEDATIVE	lure	n/a	n/a	n/a	1
400.928	0.500067131	DIPPER	lure	n/a	n/a	n/a	1
401.428	0.533255417	THRIFT	lure	n/a	n/a	n/a	1
401.961	0.533323567	DOLLY	lure	n/a	n/a	n/a	1
402.495	0.633322795	KNACK	lure	n/a	n/a	n/a	1
403.128	0.416662795	CASHEW	lure	n/a	n/a	n/a	1
403.545	0.416661657	PLAZA	lure	n/a	n/a	n/a	1
403.961	0.499992738	MACK	lure	n/a	n/a	n/a	1
404.461	0.616659723	HINDRANCE	lure	n/a	n/a	n/a	1
405.078	0.633325034	COMBO	lure	n/a	n/a	n/a	1
405.711	0.484344226	SCIENTIST	lure	n/a	n/a	n/a	1
406.196	0.365642907	SISTER	lure	n/a	n/a	n/a	1
406.561	2.01664308	CART	long	n/a	n/a	n/a	1
408.578	0.416656549	SHILLING	lure	n/a	n/a	n/a	1
408.995	0.483329726	INSOMNIA	lure	n/a	n/a	n/a	1
409.478	0.44999206	SAXOPHONE	lure	n/a	n/a	n/a	1
409.928	0.616657616	FELICITY	lure	n/a	n/a	n/a	1
410.545	0.500036725	BUNKHOUSE	lure	n/a	n/a	n/a	1
411.045	0.549948409	SELECTION	lure	n/a	n/a	n/a	1
411.595	0.499996349	FORESTER	lure	n/a	n/a	n/a	1
412.095	0.733420289	FINANCIER	lure	n/a	n/a	n/a	1
412.828	0.666557079	HERMITAGE	lure	n/a	n/a	n/a	1
413.495	0.649992265	MONSTER	lure	n/a	n/a	n/a	1
414.145	0.616658564	ZODIAC	lure	n/a	n/a	n/a	1
414.761	0.616657725	CONTRACT	short	n/a	n/a	n/a	1
415.378	0.549989891	HANDICRAFT	lure	n/a	n/a	n/a	1
415.928	0.350002717	EYESIGHT	lure	n/a	n/a	n/a	1
416.278	0.399990179	ADVISER	lure	n/a	n/a	n/a	1
416.678	0.71665672	CEREBELLUM	lure	n/a	n/a	n/a	1
417.395	0.483428288	SONNET	lure	n/a	n/a	n/a	1
417.878	0.733222412	BOARDWALK	lure	n/a	n/a	n/a	1
418.611	0.716657373	SULFUR	lure	n/a	n/a	n/a	1
419.328	0.666657598	TELLER	lure	n/a	n/a	n/a	1
419.995	0.43332856	DICE	lure	n/a	n/a	n/a	1
420.428	0.333327152	PANCAKE	lure	n/a	n/a	n/a	1
420.761	0.433376223	LOUNGER	lure	n/a	n/a	n/a	1
421.195	0.749937712	ABERRATION	lure	n/a	n/a	n/a	1
421.945	0.400001585	DIARY	lure	n/a	n/a	n/a	1
422.345	0.499989774	GROUPIE	lure	n/a	n/a	n/a	1
422.845	0.649992729	RECORD	short	n/a	n/a	n/a	1
423.495	0.499993282	PORCUPINE	lure	n/a	n/a	n/a	1
423.995	0.366659651	MICROWAVE	lure	n/a	n/a	n/a	1
424.361	0.483328297	DRUGSTORE	lure	n/a	n/a	n/a	1
424.845	0.616661773	EXTRACT	lure	n/a	n/a	n/a	1
425.461	0.599983175	REIN	lure	n/a	n/a	n/a	1
426.061	0.616664407	LIMBO	lure	n/a	n/a	n/a	1
426.678	0.483324049	BACKGAMMON	lure	n/a	n/a	n/a	1
427.161	0.449990439	RESOLUTION	lure	n/a	n/a	n/a	1
427.611	0.699995009	LILY	lure	n/a	n/a	n/a	1
428.311	0.416835682	RECEPTION	lure	n/a	n/a	n/a	1
428.728	0.733146797	DAYBREAK	lure	n/a	n/a	n/a	1
429.461	0.499993992	SEDGE	lure	n/a	n/a	n/a	1
429.961	0.649992001	MARMALADE	lure	n/a	n/a	n/a	1
430.611	0.383325213	DOORFRAME	lure	n/a	n/a	n/a	1
430.994	2.016643281	ASHES	long	n/a	n/a	n/a	1
433.011	0.399989164	CHOIRBOY	lure	n/a	n/a	n/a	1
433.411	0.34999895	METHANE	lure	n/a	n/a	n/a	1
433.761	0.399995602	SUPPLEMENT	lure	n/a	n/a	n/a	1
434.161	0.533324913	OBSCENITY	lure	n/a	n/a	n/a	1
434.694	0.483326924	WAY	lure	n/a	n/a	n/a	1
435.178	0.333331913	DISORDER	lure	n/a	n/a	n/a	1
435.511	0.520624128	PAYROLL	lure	n/a	n/a	n/a	1
436.032	0.562693538	SPINDLE	lure	n/a	n/a	n/a	1
436.594	0.38332846	CARRIER	lure	n/a	n/a	n/a	1
436.978	0.416658269	LIBRARY	lure	n/a	n/a	n/a	1
437.394	0.599994804	CAMPGROUND	lure	n/a	n/a	n/a	1
437.994	0.49998852	TRAY	lure	n/a	n/a	n/a	1
438.494	0.668680158	FLAGELLA	lure	n/a	n/a	n/a	1
439.163	0.397971487	GOBLET	lure	n/a	n/a	n/a	1
439.561	2.050039181	BROOM	long	n/a	n/a	n/a	1
441.611	0.583340887	YEARLING	lure	n/a	n/a	n/a	1
442.194	0.666578368	RITZ	lure	n/a	n/a	n/a	1
442.861	0.449996817	LITERALISM	lure	n/a	n/a	n/a	1
443.311	0.616657733	PARKLAND	lure	n/a	n/a	n/a	1
443.928	0.616653694	WEB	lure	n/a	n/a	n/a	1
444.544	0.433330786	GNOME	lure	n/a	n/a	n/a	1
444.978	0.766658038	MIDPOINT	lure	n/a	n/a	n/a	1
445.744	0.683385446	PREMIUM	lure	n/a	n/a	n/a	1
446.428	0.716594928	IDEALISM	lure	n/a	n/a	n/a	1
447.144	0.683382484	BARBER	lure	n/a	n/a	n/a	1
447.828	0.349936403	INDUCTION	lure	n/a	n/a	n/a	1
448.178	1.020504915	BANANA	fruit	708	2	2	1
449.198	0.646188125	AIRPORT	lure	n/a	n/a	n/a	1
449.844	0.716606527	REACTION	lure	n/a	n/a	n/a	1
450.561	0.433329259	BEAUTICIAN	lure	n/a	n/a	n/a	1
450.994	0.583385277	STICKER	lure	n/a	n/a	n/a	1
451.578	0.383267623	CHORE	lure	n/a	n/a	n/a	1
451.961	0.35356208	CLOCKWORK	lure	n/a	n/a	n/a	1
452.314	0.563092326	WATCHDOG	lure	n/a	n/a	n/a	1
452.877	0.483385492	CITY	lure	n/a	n/a	n/a	1
453.361	0.616598721	BROTHER	lure	n/a	n/a	n/a	1
453.977	0.73332475	ALIMONY	lure	n/a	n/a	n/a	1
454.711	0.583324253	BOMBER	lure	n/a	n/a	n/a	1
455.294	0.566658205	PASTRY	lure	n/a	n/a	n/a	1
455.861	0.366662304	AUTO	lure	n/a	n/a	n/a	1
456.227	0.699992885	OAF	lure	n/a	n/a	n/a	1
456.927	0.383326279	HARMONY	lure	n/a	n/a	n/a	1
457.311	0.450055359	VISCOSITY	lure	n/a	n/a	n/a	1
457.761	0.616597324	VERSION	lure	n/a	n/a	n/a	1
458.377	0.600048505	CIDER	lure	n/a	n/a	n/a	1
458.977	0.699934268	UPBRINGING	lure	n/a	n/a	n/a	1
459.677	0.399994875	REDHEAD	lure	n/a	n/a	n/a	1
460.077	0.366661205	PARCHMENT	lure	n/a	n/a	n/a	1
460.444	0.400051953	COLLATERAL	lure	n/a	n/a	n/a	1
460.844	0.483269072	PRECEDENT	lure	n/a	n/a	n/a	1
461.327	0.616657966	JELLY	lure	n/a	n/a	n/a	1
461.944	0.7499907	RIDGE	lure	n/a	n/a	n/a	1
462.694	0.449993027	CRUST	lure	n/a	n/a	n/a	1
463.144	0.499991746	ASSEMBLY	lure	n/a	n/a	n/a	1
463.644	0.466732523	STUD	lure	n/a	n/a	n/a	1
464.111	0.366593224	DISCOVERY	lure	n/a	n/a	n/a	1
464.477	n/a	PRESSER	lure	n/a	n/a	n/a	1