onset	duration	stim	cond	RT	resp	cresp	acc
4.041	0.716705409	CLOSURE	lure	n/a	n/a	n/a	1
4.758	0.7499447	MUSKETEER	lure	n/a	n/a	n/a	1
5.508	0.58332105	OPTICIAN	lure	n/a	n/a	n/a	1
6.091	0.416663691	EYEPIECE	lure	n/a	n/a	n/a	1
6.508	0.34999258	STRONGHOLD	lure	n/a	n/a	n/a	1
6.858	0.419684737	TAKER	lure	n/a	n/a	n/a	1
7.277	2.013624105	BROOM	long	n/a	n/a	n/a	1
9.291	0.716655548	MITIGATION	lure	n/a	n/a	n/a	1
10.008	0.483319636	MEGAPHONE	lure	n/a	n/a	n/a	1
10.491	0.783327876	PEASANT	lure	n/a	n/a	n/a	1
11.274	0.749986587	AIRMEN	lure	n/a	n/a	n/a	1
12.024	0.616656367	DIALECTIC	lure	n/a	n/a	n/a	1
12.641	0.699998248	PRANK	lure	n/a	n/a	n/a	1
13.341	0.699987643	CORTEX	lure	n/a	n/a	n/a	1
14.041	0.49999334	SKILLET	lure	n/a	n/a	n/a	1
14.541	0.699988269	PISTACHIO	lure	n/a	n/a	n/a	1
15.241	2.016644391	LIGHT	long	n/a	n/a	n/a	1
17.258	0.533325196	WORKMEN	lure	n/a	n/a	n/a	1
17.791	0.483326518	WORKER	lure	n/a	n/a	n/a	1
18.274	0.766705832	BUCKSHOT	lure	n/a	n/a	n/a	1
19.041	0.366612007	MOTORCAR	lure	n/a	n/a	n/a	1
19.408	0.383323857	JASPER	lure	n/a	n/a	n/a	1
19.791	0.36818526	STAPLER	lure	n/a	n/a	n/a	1
20.159	0.386560517	AUTOLOADER	lure	n/a	n/a	n/a	1
20.546	0.349559664	MANTEL	lure	n/a	n/a	n/a	1
20.895	0.545680686	ACCURACY	lure	n/a	n/a	n/a	1
21.441	0.633323662	BREAKAGE	lure	n/a	n/a	n/a	1
22.074	0.466661092	TWOSOME	lure	n/a	n/a	n/a	1
22.541	0.49998366	KITE	lure	n/a	n/a	n/a	1
23.041	0.616662922	BIZ	lure	n/a	n/a	n/a	1
23.657	0.616663169	PERMIT	short	n/a	n/a	n/a	1
24.274	0.333325282	APOLOGY	lure	n/a	n/a	n/a	1
24.607	0.58332526	RETELLING	lure	n/a	n/a	n/a	1
25.191	0.533329643	COMPASSION	lure	n/a	n/a	n/a	1
25.724	0.449992762	KARATE	lure	n/a	n/a	n/a	1
26.174	0.666650408	IMITATION	lure	n/a	n/a	n/a	1
26.841	0.449997942	SCOURGE	lure	n/a	n/a	n/a	1
27.291	0.499996363	SPECIALIST	lure	n/a	n/a	n/a	1
27.791	0.366655422	RAIDER	lure	n/a	n/a	n/a	1
28.157	0.716663458	DEFICIENCY	lure	n/a	n/a	n/a	1
28.874	0.333330403	CATERER	lure	n/a	n/a	n/a	1
29.207	0.39999157	TURMOIL	lure	n/a	n/a	n/a	1
29.607	0.466664378	PROPOSAL	lure	n/a	n/a	n/a	1
30.074	0.51671061	PARADISE	lure	n/a	n/a	n/a	1
30.591	0.433273948	FELLA	lure	n/a	n/a	n/a	1
31.024	0.533325572	CORNFIELD	lure	n/a	n/a	n/a	1
31.557	0.733377375	SOCIALITE	lure	n/a	n/a	n/a	1
32.291	1.016655307	LEMON	fruit	674	2	2	1
33.307	0.516667908	CRUDE	lure	n/a	n/a	n/a	1
33.824	0.516655903	ADVENT	lure	n/a	n/a	n/a	1
34.341	0.733317036	INCEPTION	lure	n/a	n/a	n/a	1
35.074	0.466670551	EVERYTHING	lure	n/a	n/a	n/a	1
35.541	0.533263815	QUOTA	lure	n/a	n/a	n/a	1
36.074	0.483327944	TAXATION	lure	n/a	n/a	n/a	1
36.557	0.649992484	GRAMMAR	lure	n/a	n/a	n/a	1
37.207	0.383321127	EXPANSION	lure	n/a	n/a	n/a	1
37.591	0.349995577	STEEPLE	lure	n/a	n/a	n/a	1
37.941	0.616664499	FRIAR	lure	n/a	n/a	n/a	1
38.557	0.633318465	DUNGEON	lure	n/a	n/a	n/a	1
39.191	0.466664056	DISLOYALTY	lure	n/a	n/a	n/a	1
39.657	0.633323961	RESPONSE	lure	n/a	n/a	n/a	1
40.291	0.41669653	INVITATION	lure	n/a	n/a	n/a	1
40.707	0.616626236	CANDLE	short	n/a	n/a	n/a	1
41.324	0.399986493	FARMSTEAD	lure	n/a	n/a	n/a	1
41.724	0.666666433	INFO	lure	n/a	n/a	n/a	1
42.391	0.433318572	DORM	lure	n/a	n/a	n/a	1
42.824	0.736455633	SENSOR	lure	n/a	n/a	n/a	1
43.56	0.448566704	COASTLINE	lure	n/a	n/a	n/a	1
44.009	0.448291153	CHUNK	lure	n/a	n/a	n/a	1
44.457	0.549994638	JOURNALIST	lure	n/a	n/a	n/a	1
45.007	0.733321735	JAILBIRD	lure	n/a	n/a	n/a	1
45.741	0.466663753	SNAPDRAGON	lure	n/a	n/a	n/a	1
46.207	0.39999811	LATENCY	lure	n/a	n/a	n/a	1
46.607	0.583326295	UPPERCUT	lure	n/a	n/a	n/a	1
47.19	0.433319485	TROOPSHIP	lure	n/a	n/a	n/a	1
47.624	0.399993916	STUPIDITY	lure	n/a	n/a	n/a	1
48.024	0.749992276	TENANT	lure	n/a	n/a	n/a	1
48.774	0.616663143	CHROME	short	n/a	n/a	n/a	1
49.39	0.483328848	CHAMELEON	lure	n/a	n/a	n/a	1
49.874	0.499987919	VALENCE	lure	n/a	n/a	n/a	1
50.374	0.633329537	MOOD	lure	n/a	n/a	n/a	1
51.007	0.683324295	COOLANT	lure	n/a	n/a	n/a	1
51.69	0.766657063	BRUTALITY	lure	n/a	n/a	n/a	1
52.457	0.516694359	SECURITY	lure	n/a	n/a	n/a	1
52.974	0.566617585	MONGREL	lure	n/a	n/a	n/a	1
53.54	0.466714064	DIFFERENCE	lure	n/a	n/a	n/a	1
54.007	0.366649918	CLOUDBURST	lure	n/a	n/a	n/a	1
54.374	0.400003764	CHARIOT	lure	n/a	n/a	n/a	1
54.774	0.366617781	CITATION	lure	n/a	n/a	n/a	1
55.14	0.433322045	RESIDENCY	lure	n/a	n/a	n/a	1
55.574	0.53336664	OCTAGON	lure	n/a	n/a	n/a	1
56.107	0.600010061	DEFECT	lure	n/a	n/a	n/a	1
56.707	0.466648371	SPANGLE	lure	n/a	n/a	n/a	1
57.174	2.016600633	PASTEL	long	n/a	n/a	n/a	1
59.19	0.683318652	PROPAGANDA	lure	n/a	n/a	n/a	1
59.874	0.450036236	PROCURER	lure	n/a	n/a	n/a	1
60.324	0.416621047	MADHOUSE	lure	n/a	n/a	n/a	1
60.74	0.633327497	LLAMA	lure	n/a	n/a	n/a	1
61.374	0.400047268	PEASANTRY	lure	n/a	n/a	n/a	1
61.774	0.783265317	MORPHINE	lure	n/a	n/a	n/a	1
62.557	0.333323793	TORMENTOR	lure	n/a	n/a	n/a	1
62.89	0.3166627	ROYALTY	lure	n/a	n/a	n/a	1
63.207	0.683329363	INFLUX	lure	n/a	n/a	n/a	1
63.89	0.349990374	HOOCH	lure	n/a	n/a	n/a	1
64.24	0.533328368	SAMPLER	lure	n/a	n/a	n/a	1
64.774	0.66666043	PERMANENCE	lure	n/a	n/a	n/a	1
65.44	0.749993459	SCHOOLBOY	lure	n/a	n/a	n/a	1
66.19	2.016636413	ATLAS	long	n/a	n/a	n/a	1
68.207	0.766657476	DIAGRAM	lure	n/a	n/a	n/a	1
68.974	0.383326009	TROTH	lure	n/a	n/a	n/a	1
69.357	0.43332698	TRAINEE	lure	n/a	n/a	n/a	1
69.79	0.333333263	DEPOSITOR	lure	n/a	n/a	n/a	1
70.124	0.549990036	BANKER	lure	n/a	n/a	n/a	1
70.674	0.31665871	CARNATION	lure	n/a	n/a	n/a	1
70.99	0.583325119	CLIENTELE	lure	n/a	n/a	n/a	1
71.573	0.316669918	ARGUMENT	lure	n/a	n/a	n/a	1
71.89	0.33332918	SPEEDUP	lure	n/a	n/a	n/a	1
72.223	0.683323451	FLYOVER	lure	n/a	n/a	n/a	1
72.907	0.350031472	CONTINENT	lure	n/a	n/a	n/a	1
73.257	0.699949344	PRESERVER	lure	n/a	n/a	n/a	1
73.957	0.549998777	TRADITION	lure	n/a	n/a	n/a	1
74.507	0.616657489	RECORD	short	n/a	n/a	n/a	1
75.123	0.549992432	ASSASSIN	lure	n/a	n/a	n/a	1
75.673	0.683318012	BUNTING	lure	n/a	n/a	n/a	1
76.357	0.733330311	OVEN	lure	n/a	n/a	n/a	1
77.09	0.51665245	CELEBRITY	lure	n/a	n/a	n/a	1
77.607	0.349998245	MATRIARCHY	lure	n/a	n/a	n/a	1
77.957	0.666660802	FREEBOARD	lure	n/a	n/a	n/a	1
78.623	0.349995987	BOWEL	lure	n/a	n/a	n/a	1
78.973	0.399996174	TOPOGRAPHY	lure	n/a	n/a	n/a	1
79.373	0.4666531	GIBLET	lure	n/a	n/a	n/a	1
79.84	0.549995935	CONVEYER	lure	n/a	n/a	n/a	1
80.39	0.383328011	FIREWOOD	lure	n/a	n/a	n/a	1
80.773	0.516664126	ENTITY	lure	n/a	n/a	n/a	1
81.29	0.499990173	WHITECAP	lure	n/a	n/a	n/a	1
81.79	0.584147081	NEPHEW	lure	n/a	n/a	n/a	1
82.374	0.434564145	DEBAUCHERY	lure	n/a	n/a	n/a	1
82.809	0.615563519	SOAP	short	n/a	n/a	n/a	1
83.424	0.615692436	SANDBAR	lure	n/a	n/a	n/a	1
84.04	0.566662927	ASSISTANT	lure	n/a	n/a	n/a	1
84.607	0.533320788	MINDER	lure	n/a	n/a	n/a	1
85.14	0.516666018	GRANNY	lure	n/a	n/a	n/a	1
85.657	0.433324627	DUSK	lure	n/a	n/a	n/a	1
86.09	0.333332005	WINTERTIME	lure	n/a	n/a	n/a	1
86.423	0.533328156	DISK	lure	n/a	n/a	n/a	1
86.957	0.599984066	REFEREE	lure	n/a	n/a	n/a	1
87.557	0.699990644	CELL	lure	n/a	n/a	n/a	1
88.257	0.56666066	ABUNDANCE	lure	n/a	n/a	n/a	1
88.823	0.433326439	SUPEREGO	lure	n/a	n/a	n/a	1
89.257	0.416729147	REFORMER	lure	n/a	n/a	n/a	1
89.673	0.35422705	ROSEMARY	lure	n/a	n/a	n/a	1
90.028	0.746568854	UPKEEP	lure	n/a	n/a	n/a	1
90.774	0.749156884	VIOLENCE	lure	n/a	n/a	n/a	1
91.523	2.016596309	SAWDUST	long	n/a	n/a	n/a	1
93.54	0.633323667	CARROT	lure	n/a	n/a	n/a	1
94.173	0.383328163	DISQUIET	lure	n/a	n/a	n/a	1
94.557	0.433333752	SPOKESMAN	lure	n/a	n/a	n/a	1
94.99	0.366657453	LIFEBOAT	lure	n/a	n/a	n/a	1
95.357	0.449990388	SLAB	lure	n/a	n/a	n/a	1
95.806	0.683326469	RIVERSIDE	lure	n/a	n/a	n/a	1
96.49	0.61666461	HIDEOUT	lure	n/a	n/a	n/a	1
97.106	0.449994416	PUTTY	lure	n/a	n/a	n/a	1
97.556	0.601446727	DECOY	lure	n/a	n/a	n/a	1
98.158	0.665200149	BUSYBODY	lure	n/a	n/a	n/a	1
98.823	0.483321328	CEMETERY	lure	n/a	n/a	n/a	1
99.306	0.649993506	TRUCKER	lure	n/a	n/a	n/a	1
99.956	1.016654489	WATERMELON	fruit	777	2	2	1
100.973	0.733321388	HARE	lure	n/a	n/a	n/a	1
101.706	0.39999882	OVERHAUL	lure	n/a	n/a	n/a	1
102.106	0.633388225	LOVER	lure	n/a	n/a	n/a	1
102.74	0.666593269	FURNACE	lure	n/a	n/a	n/a	1
103.406	0.666656429	PENTHOUSE	lure	n/a	n/a	n/a	1
104.073	0.633325153	CHAPERONE	lure	n/a	n/a	n/a	1
104.706	0.549996094	CROSSWORD	lure	n/a	n/a	n/a	1
105.256	0.501923002	ARTIFACT	lure	n/a	n/a	n/a	1
105.758	0.635567666	ARCHBISHOP	lure	n/a	n/a	n/a	1
106.394	0.749627771	TYPOLOGY	lure	n/a	n/a	n/a	1
107.143	0.566509486	FOLLOWER	lure	n/a	n/a	n/a	1
107.71	0.512995966	ADORNMENT	lure	n/a	n/a	n/a	1
108.223	2.050024785	STAPLE	long	n/a	n/a	n/a	1
110.273	0.449940835	TALON	lure	n/a	n/a	n/a	1
110.723	0.466663907	REGULATOR	lure	n/a	n/a	n/a	1
111.19	0.7499895	PEA	lure	n/a	n/a	n/a	1
111.94	0.399998834	DOORHANDLE	lure	n/a	n/a	n/a	1
112.34	0.74998643	AUDACITY	lure	n/a	n/a	n/a	1
113.09	0.599987693	SLOGAN	lure	n/a	n/a	n/a	1
113.69	0.416664236	KILT	lure	n/a	n/a	n/a	1
114.106	0.65155395	WALLPAPER	lure	n/a	n/a	n/a	1
114.758	0.665091841	TELEGRAM	lure	n/a	n/a	n/a	1
115.423	0.383333765	INSIDER	lure	n/a	n/a	n/a	1
115.806	0.484270323	DALE	lure	n/a	n/a	n/a	1
116.291	0.749567033	FAD	lure	n/a	n/a	n/a	1
117.04	1.016127677	PEACH	fruit	757	2	2	1
118.056	0.549993514	GENTRY	lure	n/a	n/a	n/a	1
118.606	0.499992629	BAKERY	lure	n/a	n/a	n/a	1
119.106	0.666662398	GULLY	lure	n/a	n/a	n/a	1
119.773	0.766653817	SON	lure	n/a	n/a	n/a	1
120.54	0.683323897	HEADSTAND	lure	n/a	n/a	n/a	1
121.223	0.31666101	TRAPPER	lure	n/a	n/a	n/a	1
121.539	0.766657918	REPRINT	lure	n/a	n/a	n/a	1
122.306	0.733325774	DISPERSAL	lure	n/a	n/a	n/a	1
123.039	0.720296686	TROLLEY	lure	n/a	n/a	n/a	1
123.76	0.513024345	CHAIRWOMAN	lure	n/a	n/a	n/a	1
124.273	0.383323985	OVERKILL	lure	n/a	n/a	n/a	1
124.656	0.649991771	AUTHORITY	lure	n/a	n/a	n/a	1
125.306	0.616657503	SACK	short	n/a	n/a	n/a	1
125.923	0.49999152	HEAVEN	lure	n/a	n/a	n/a	1
126.423	0.716662036	FARMHAND	lure	n/a	n/a	n/a	1
127.139	0.749988209	VEHICLE	lure	n/a	n/a	n/a	1
127.889	0.433323571	ROPEWALK	lure	n/a	n/a	n/a	1
128.323	0.350000887	ROADSIDE	lure	n/a	n/a	n/a	1
128.673	0.583318244	EXPOSURE	lure	n/a	n/a	n/a	1
129.256	0.733330436	ROOSTER	lure	n/a	n/a	n/a	1
129.989	0.316654608	CYCLIST	lure	n/a	n/a	n/a	1
130.306	0.433330487	KNITWEAR	lure	n/a	n/a	n/a	1
130.739	0.733361841	TIMEKEEPER	lure	n/a	n/a	n/a	1
131.473	0.533288524	SMOKER	lure	n/a	n/a	n/a	1
132.006	0.616654651	TANNER	lure	n/a	n/a	n/a	1
132.623	0.633325397	TRUNK	lure	n/a	n/a	n/a	1
133.256	0.533329794	LEFTHANDER	lure	n/a	n/a	n/a	1
133.789	2.016640524	ASHES	long	n/a	n/a	n/a	1
135.806	0.516661191	JIFFY	lure	n/a	n/a	n/a	1
136.323	0.516653785	SCHEMA	lure	n/a	n/a	n/a	1
136.839	0.449993851	PYTHON	lure	n/a	n/a	n/a	1
137.289	0.766660345	PULSAR	lure	n/a	n/a	n/a	1
138.056	0.333324948	COYOTE	lure	n/a	n/a	n/a	1
138.389	0.583329547	HYPOCRITE	lure	n/a	n/a	n/a	1
138.973	0.599989714	FLAMINGO	lure	n/a	n/a	n/a	1
139.573	0.3499935	BULL	lure	n/a	n/a	n/a	1
139.923	0.76665893	CLASSMATE	lure	n/a	n/a	n/a	1
140.689	0.549996101	SILL	lure	n/a	n/a	n/a	1
141.239	0.533380243	DISCOURSE	lure	n/a	n/a	n/a	1
141.773	1.018759147	PINEAPPLE	fruit	729	2	2	1
142.791	0.51450041	DEADLOCK	lure	n/a	n/a	n/a	1
143.306	0.549988258	COTE	lure	n/a	n/a	n/a	1
143.856	0.349992991	DOCUMENT	lure	n/a	n/a	n/a	1
144.206	0.733329223	MADMEN	lure	n/a	n/a	n/a	1
144.939	0.749984295	GRANDPA	lure	n/a	n/a	n/a	1
145.689	0.48710681	MOUSETRAP	lure	n/a	n/a	n/a	1
146.176	0.679548594	EFFORT	lure	n/a	n/a	n/a	1
146.856	0.483327598	DONOR	lure	n/a	n/a	n/a	1
147.339	0.649986609	MAIDEN	lure	n/a	n/a	n/a	1
147.989	0.566662596	URETHRA	lure	n/a	n/a	n/a	1
148.556	0.616654757	EVERYBODY	lure	n/a	n/a	n/a	1
149.172	0.449994069	BOY	lure	n/a	n/a	n/a	1
149.622	0.483330826	PHARYNX	lure	n/a	n/a	n/a	1
150.106	2.016642097	CART	long	n/a	n/a	n/a	1
152.122	0.649985215	MAILMAN	lure	n/a	n/a	n/a	1
152.772	0.620125654	STABILITY	lure	n/a	n/a	n/a	1
153.393	0.713193061	GENE	lure	n/a	n/a	n/a	1
154.106	0.449994005	HANDLEBAR	lure	n/a	n/a	n/a	1
154.556	0.716654154	CHIMPANZEE	lure	n/a	n/a	n/a	1
155.272	0.566702746	RECTIFIER	lure	n/a	n/a	n/a	1
155.839	0.466621457	CORN	lure	n/a	n/a	n/a	1
156.306	0.333368868	MILITANCY	lure	n/a	n/a	n/a	1
156.639	0.649953242	HONEYDEW	lure	n/a	n/a	n/a	1
157.289	0.683322067	MISSILE	lure	428	2	n/a	0
157.972	0.349991467	ESPIONAGE	lure	n/a	n/a	n/a	1
158.322	0.616660381	GALLON	short	n/a	n/a	n/a	1
158.939	0.583328599	WHIM	lure	n/a	n/a	n/a	1
159.522	0.749991679	HORROR	lure	n/a	n/a	n/a	1
160.272	0.566656291	PHARMACIST	lure	n/a	n/a	n/a	1
160.839	0.616654507	PROJECTILE	lure	n/a	n/a	n/a	1
161.456	0.683326091	PROFANITY	lure	n/a	n/a	n/a	1
162.139	0.766659353	CENTRIFUGE	lure	n/a	n/a	n/a	1
162.906	0.666656239	COUNSELOR	lure	n/a	n/a	n/a	1
163.572	0.483325379	BONFIRE	lure	n/a	n/a	n/a	1
164.056	0.40065467	FREQUENCY	lure	n/a	n/a	n/a	1
164.456	0.432672368	SINGSONG	lure	n/a	n/a	n/a	1
164.889	0.749987435	LAXATIVE	lure	n/a	n/a	n/a	1
165.639	0.499992849	FAUCET	lure	n/a	n/a	n/a	1
166.139	0.616657001	FURNITURE	lure	n/a	n/a	n/a	1
166.756	1.017590895	APPLE	fruit	626	2	2	1
167.773	0.549563734	FOOD	lure	n/a	n/a	n/a	1
168.323	0.734569812	INCAPACITY	lure	n/a	n/a	n/a	1
169.057	0.683575436	MISCHIEF	lure	n/a	n/a	n/a	1
169.741	0.431563681	JUG	lure	n/a	n/a	n/a	1
170.172	0.366419456	SCAFFOLD	lure	n/a	n/a	n/a	1
170.539	0.716656645	WOLFHOUND	lure	n/a	n/a	n/a	1
171.255	0.616662192	STEAMER	lure	n/a	n/a	n/a	1
171.872	0.733323657	SUNFLOWER	lure	n/a	n/a	n/a	1
172.605	0.654276678	WINDSOCK	lure	n/a	n/a	n/a	1
173.26	0.616563591	SEVERANCE	lure	n/a	n/a	n/a	1
173.876	0.47919215	PEBBLE	lure	n/a	n/a	n/a	1
174.356	0.333274369	ASTERISK	lure	n/a	n/a	n/a	1
174.689	0.616660151	SHELL	short	n/a	n/a	n/a	1
175.305	0.749984391	SAX	lure	n/a	n/a	n/a	1
176.055	0.450036031	ARCHANGEL	lure	n/a	n/a	n/a	1
176.505	0.666619378	INCIDENT	lure	n/a	n/a	n/a	1
177.172	0.516658445	LANE	lure	n/a	n/a	n/a	1
177.689	0.766657388	PUB	lure	n/a	n/a	n/a	1
178.455	0.4166553	HOOP	lure	n/a	n/a	n/a	1
178.872	0.366664384	DINOSAUR	lure	n/a	n/a	n/a	1
179.239	0.666661244	TERRACOTTA	lure	n/a	n/a	n/a	1
179.905	0.399993038	CHIFFON	lure	n/a	n/a	n/a	1
180.305	0.31665882	WIZARDRY	lure	n/a	n/a	n/a	1
180.622	0.616657624	NEWSFLASH	lure	n/a	n/a	n/a	1
181.239	0.550032769	RIDDANCE	lure	n/a	n/a	n/a	1
181.789	0.383288304	DISUNION	lure	n/a	n/a	n/a	1
182.172	0.5166649	VIAL	lure	n/a	n/a	n/a	1
182.689	0.349995925	BACKPACK	lure	n/a	n/a	n/a	1
183.039	0.616659572	BRACELET	short	n/a	n/a	n/a	1
183.655	0.700028714	PARAFFIN	lure	n/a	n/a	n/a	1
184.355	0.499954146	BAYONET	lure	n/a	n/a	n/a	1
184.855	0.64998988	SORBET	lure	n/a	n/a	n/a	1
185.505	0.599994024	INVERSION	lure	n/a	n/a	n/a	1
186.105	0.566946181	HUMANKIND	lure	n/a	n/a	n/a	1
186.672	0.616411051	WIZARD	lure	n/a	n/a	n/a	1
187.289	0.633285158	CANDY	lure	n/a	n/a	n/a	1
187.922	0.399992483	PREHISTORY	lure	n/a	n/a	n/a	1
188.322	0.466659289	SPLENDOR	lure	n/a	n/a	n/a	1
188.789	0.416711836	MAINSTAY	lure	n/a	n/a	n/a	1
189.205	0.683275386	PASSPORT	lure	n/a	n/a	n/a	1
189.889	0.368621738	OVERFLOW	lure	n/a	n/a	n/a	1
190.257	0.698027523	HAREM	lure	n/a	n/a	n/a	1
190.955	0.350000604	SHORTY	lure	n/a	n/a	n/a	1
191.305	0.616657582	CONTRACT	short	n/a	n/a	n/a	1
191.922	0.466658659	PHENOMENON	lure	n/a	n/a	n/a	1
192.389	0.449994616	STANZA	lure	n/a	n/a	n/a	1
192.839	0.416660171	HARDTACK	lure	n/a	n/a	n/a	1
193.255	0.399996941	BUFFALO	lure	n/a	n/a	n/a	1
193.655	0.749990399	REFERRAL	lure	n/a	n/a	n/a	1
194.405	0.449993612	NONE	lure	n/a	n/a	n/a	1
194.855	0.683324275	STRIFE	lure	n/a	n/a	n/a	1
195.539	0.683320673	COURAGE	lure	n/a	n/a	n/a	1
196.222	0.683322499	VANE	lure	n/a	n/a	n/a	1
196.905	0.649996828	MENACE	lure	n/a	n/a	n/a	1
197.555	0.34999348	PARKA	lure	n/a	n/a	n/a	1
197.905	0.633321683	BURGLARY	lure	n/a	n/a	n/a	1
198.538	0.516661419	RAILROAD	lure	n/a	n/a	n/a	1
199.055	0.36666221	GIVEAWAY	lure	n/a	n/a	n/a	1
199.422	2.016636618	FLEET	long	n/a	n/a	n/a	1
201.438	0.549999123	MAMA	lure	n/a	n/a	n/a	1
201.988	0.316656741	INDIGO	lure	n/a	n/a	n/a	1
202.305	0.549992512	TURTLENECK	lure	n/a	n/a	n/a	1
202.855	0.749990057	FLAGSTONE	lure	n/a	n/a	n/a	1
203.605	0.683330561	SKETCHBOOK	lure	n/a	n/a	n/a	1
204.288	0.583325104	CLUBFOOT	lure	n/a	n/a	n/a	1
204.872	0.533320829	COLA	lure	n/a	n/a	n/a	1
205.405	0.699993787	WEEKEND	lure	n/a	n/a	n/a	1
206.105	0.649996507	COD	lure	n/a	n/a	n/a	1
206.755	0.383326631	RELEVANCE	lure	n/a	n/a	n/a	1
207.138	0.716650701	POLYGAMY	lure	n/a	n/a	n/a	1
207.855	2.016641673	CHALK	long	n/a	n/a	n/a	1
209.872	0.716663302	FOXHOLE	lure	n/a	n/a	n/a	1
210.588	0.749989214	WATT	lure	n/a	n/a	n/a	1
211.338	0.449986612	SCREENPLAY	lure	n/a	n/a	n/a	1
211.788	0.716660479	DOGGY	lure	n/a	n/a	n/a	1
212.505	0.633380536	BANKNOTE	lure	n/a	n/a	n/a	1
213.138	0.483272521	QUEST	lure	n/a	n/a	n/a	1
213.622	0.353860371	MEDIOCRITY	lure	n/a	n/a	n/a	1
213.975	0.596182006	NONDRIVER	lure	n/a	n/a	n/a	1
214.572	0.366608914	CORONET	lure	n/a	n/a	n/a	1
214.938	0.616653401	LANDLADY	lure	n/a	n/a	n/a	1
215.555	0.566665495	PEW	lure	n/a	n/a	n/a	1
216.122	1.016653388	CHERRY	fruit	604	2	2	1
217.138	0.749990682	WIDOWHOOD	lure	n/a	n/a	n/a	1
217.888	0.349993511	TRIBESMAN	lure	n/a	n/a	n/a	1
218.238	0.699992771	CROSSBEAM	lure	n/a	n/a	n/a	1
218.938	0.71670844	BICYCLE	lure	n/a	n/a	n/a	1
219.655	0.44994185	ERASER	lure	n/a	n/a	n/a	1
220.105	0.416661045	EPILEPSY	lure	n/a	n/a	n/a	1
220.522	0.316744231	EMINENCE	lure	n/a	n/a	n/a	1
220.838	0.616571411	DRAUGHT	lure	n/a	n/a	n/a	1
221.455	0.533329779	MILLENNIUM	lure	n/a	n/a	n/a	1
221.988	0.533319043	SOPHOMORE	lure	n/a	n/a	n/a	1
222.521	0.733332362	RETIREMENT	lure	n/a	n/a	n/a	1
223.255	0.316653644	PAPERBACK	lure	n/a	n/a	n/a	1
223.571	0.416661304	FISHERMEN	lure	n/a	n/a	n/a	1
223.988	0.616663407	QUANDARY	lure	n/a	n/a	n/a	1
224.605	0.466655633	ALLERGY	lure	n/a	n/a	n/a	1
225.071	0.333369437	DEWDROP	lure	n/a	n/a	n/a	1
225.405	0.616617936	FEEDBACK	lure	n/a	n/a	n/a	1
226.021	0.516662141	HALTER	lure	n/a	n/a	n/a	1
226.538	n/a	MAILBOX	lure	n/a	n/a	n/a	1
238.005	0.683327799	AMBIGUITY	lure	n/a	n/a	n/a	1
238.688	0.366657824	PROSPECT	lure	n/a	n/a	n/a	1
239.055	0.616659367	SUPERVISOR	lure	n/a	n/a	n/a	1
239.671	0.599988265	ELVER	lure	n/a	n/a	n/a	1
240.271	0.43332895	LIMERICK	lure	n/a	n/a	n/a	1
240.705	0.433328	LYE	lure	n/a	n/a	n/a	1
241.138	0.383327045	HYPERBOLE	lure	n/a	n/a	n/a	1
241.521	0.616663058	BRACELET	short	n/a	n/a	n/a	1
242.138	0.366661856	CAB	lure	n/a	n/a	n/a	1
242.505	0.533325256	AUDITORIUM	lure	n/a	n/a	n/a	1
243.038	0.699986554	WEALTH	lure	n/a	n/a	n/a	1
243.738	0.683327393	ANTECEDENT	lure	n/a	n/a	n/a	1
244.421	0.649989607	CATHEDRAL	lure	n/a	n/a	n/a	1
245.071	0.433370731	CHOCOLATE	lure	n/a	n/a	n/a	1
245.505	0.733283515	BASILICA	lure	n/a	n/a	n/a	1
246.238	0.683325421	EARDRUM	lure	n/a	n/a	n/a	1
246.921	0.649988208	FOE	lure	n/a	n/a	n/a	1
247.571	0.366662258	POSTBOX	lure	n/a	n/a	n/a	1
247.938	0.616658326	RINK	lure	n/a	n/a	n/a	1
248.554	0.583326914	INSOLE	lure	n/a	n/a	n/a	1
249.138	0.61669662	ORATOR	lure	n/a	n/a	n/a	1
249.754	2.016602872	BROOM	long	n/a	n/a	n/a	1
251.771	0.569313921	COCHLEA	lure	n/a	n/a	n/a	1
252.34	0.315500989	SENSUALITY	lure	n/a	n/a	n/a	1
252.656	0.481829277	ADAPTATION	lure	n/a	n/a	n/a	1
253.138	0.599996343	SHRINE	lure	n/a	n/a	n/a	1
253.738	0.566656814	SERGEANT	lure	n/a	n/a	n/a	1
254.304	0.350036681	NODE	lure	n/a	n/a	n/a	1
254.654	0.499992526	BASEBALL	lure	n/a	n/a	n/a	1
255.154	0.349957061	ALTO	lure	n/a	n/a	n/a	1
255.504	0.549989507	JARGON	lure	n/a	n/a	n/a	1
256.054	0.533328246	PRESSMAN	lure	n/a	n/a	n/a	1
256.588	0.549995494	FLEA	lure	n/a	n/a	n/a	1
257.138	0.366658941	POLYNOMIAL	lure	n/a	n/a	n/a	1
257.504	0.41665694	REPTILE	lure	n/a	n/a	n/a	1
257.921	1.018806825	GRAPEFRUIT	fruit	676	2	2	1
258.94	0.465568175	VITALITY	lure	n/a	n/a	n/a	1
259.405	0.498932159	HERMIT	lure	n/a	n/a	n/a	1
259.904	0.449994504	REDUCTION	lure	n/a	n/a	n/a	1
260.354	0.599993844	WHEELBASE	lure	n/a	n/a	n/a	1
260.954	0.73332511	DOLLAR	lure	n/a	n/a	n/a	1
261.688	0.450032954	FORUM	lure	n/a	n/a	n/a	1
262.138	0.516686236	DOWRY	lure	n/a	n/a	n/a	1
262.654	0.416596827	MILESTONE	lure	n/a	n/a	n/a	1
263.071	0.566656463	POPGUN	lure	n/a	n/a	n/a	1
263.638	0.549996719	LIBERATION	lure	n/a	n/a	n/a	1
264.188	0.533320257	DIVERSION	lure	n/a	n/a	n/a	1
264.721	0.616658481	STOCKADE	lure	n/a	n/a	n/a	1
265.338	0.333488507	SYNTAX	lure	n/a	n/a	n/a	1
265.671	0.566501957	SCANDAL	lure	n/a	n/a	n/a	1
266.238	0.61665809	CONTRACT	short	n/a	n/a	n/a	1
266.854	0.599990321	IMMATURITY	lure	n/a	n/a	n/a	1
267.454	0.483331418	VIRTUOSITY	lure	n/a	n/a	n/a	1
267.938	0.46665927	PACESETTER	lure	n/a	n/a	n/a	1
268.404	0.419200254	SUNSPOT	lure	n/a	n/a	n/a	1
268.823	0.434562627	EXULTATION	lure	n/a	n/a	n/a	1
269.258	0.400563771	ACADEMY	lure	n/a	n/a	n/a	1
269.659	0.696563447	SANDBANK	lure	n/a	n/a	n/a	1
270.355	0.615744212	HUT	lure	n/a	n/a	n/a	1
270.971	0.566654974	CASTLE	lure	n/a	n/a	n/a	1
271.537	0.416703312	ICEBOX	lure	n/a	n/a	n/a	1
271.954	0.466620911	YACHTSMAN	lure	n/a	n/a	n/a	1
272.421	0.599986998	GERANIUM	lure	n/a	n/a	n/a	1
273.021	0.533331849	KINGPIN	lure	n/a	n/a	n/a	1
273.554	0.350032334	MODERNITY	lure	n/a	n/a	n/a	1
273.904	0.416619868	SAVAGERY	lure	n/a	n/a	n/a	1
274.321	1.016658226	GOOSEBERRY	fruit	692	2	2	1
275.337	0.566655309	MAJESTY	lure	n/a	n/a	n/a	1
275.904	0.686677353	CASEWORKER	lure	n/a	n/a	n/a	1
276.591	0.401443292	JEEP	lure	n/a	n/a	n/a	1
276.992	0.645193092	HALL	lure	n/a	n/a	n/a	1
277.637	0.400036012	PATHFINDER	lure	n/a	n/a	n/a	1
278.037	0.616656815	GESTURE	lure	n/a	n/a	n/a	1
278.654	0.733278992	GULLET	lure	n/a	n/a	n/a	1
279.387	0.749991146	STEPFATHER	lure	n/a	n/a	n/a	1
280.137	0.499990897	FRESHMAN	lure	n/a	n/a	n/a	1
280.637	0.549998609	JUNIPER	lure	n/a	n/a	n/a	1
281.187	0.349992597	DRAGON	lure	n/a	n/a	n/a	1
281.537	0.383327929	GOWN	lure	n/a	n/a	n/a	1
281.921	0.416662388	FOOTNOTE	lure	n/a	n/a	n/a	1
282.337	2.016641383	ATLAS	long	n/a	n/a	n/a	1
284.354	0.733324189	LIGHTHOUSE	lure	n/a	n/a	n/a	1
285.087	0.749984881	INVENTION	lure	n/a	n/a	n/a	1
285.837	0.366668251	COASTER	lure	n/a	n/a	n/a	1
286.204	0.349998253	DECADENCE	lure	n/a	n/a	n/a	1
286.554	0.733314652	HEATER	lure	n/a	n/a	n/a	1
287.287	0.51666345	SHOESTRING	lure	n/a	n/a	n/a	1
287.804	0.449993842	DOWNTURN	lure	n/a	n/a	n/a	1
288.254	0.599992826	ALCHEMY	lure	n/a	n/a	n/a	1
288.854	0.783380995	TOLERANCE	lure	n/a	n/a	n/a	1
289.637	0.568408897	TURNPIKE	lure	n/a	n/a	n/a	1
290.206	0.481517972	PEDDLER	lure	n/a	n/a	n/a	1
290.687	0.616655828	SHELL	short	n/a	n/a	n/a	1
291.304	0.583330295	BEEFEATER	lure	n/a	n/a	n/a	1
291.887	0.31665904	ACCOMPLICE	lure	n/a	n/a	n/a	1
292.204	0.38338167	SQUEALER	lure	n/a	n/a	n/a	1
292.587	0.483277957	VAGABOND	lure	n/a	n/a	n/a	1
293.071	0.436279104	SIERRA	lure	n/a	n/a	n/a	1
293.507	0.547036424	PROSECUTOR	lure	n/a	n/a	n/a	1
294.054	0.416663208	BARTENDER	lure	n/a	n/a	n/a	1
294.471	0.750030263	INSTRUMENT	lure	n/a	n/a	n/a	1
295.221	0.716682706	TOPSAIL	lure	n/a	n/a	n/a	1
295.937	0.31659538	REPUTATION	lure	n/a	n/a	n/a	1
296.254	0.387351888	JASMINE	lure	n/a	n/a	n/a	1
296.641	0.416559396	CRITTER	lure	n/a	n/a	n/a	1
297.058	0.562740767	FREEDMAN	lure	n/a	n/a	n/a	1
297.62	0.716698249	ASPEN	lure	n/a	n/a	n/a	1
298.337	0.38328533	ARROWHEAD	lure	n/a	n/a	n/a	1
298.72	2.016639551	ASHES	long	n/a	n/a	n/a	1
300.737	0.650038197	ANIMATION	lure	n/a	n/a	n/a	1
301.387	0.366612588	SPRITE	lure	n/a	n/a	n/a	1
301.754	0.366662002	TEAMSTER	lure	n/a	n/a	n/a	1
302.12	0.450061266	TURKEY	lure	n/a	n/a	n/a	1
302.57	0.749921067	LADING	lure	n/a	n/a	n/a	1
303.32	0.452584276	LAKE	lure	n/a	n/a	n/a	1
303.773	0.314116708	MARINA	lure	n/a	n/a	n/a	1
304.087	0.383285163	MISSION	lure	n/a	n/a	n/a	1
304.47	0.566657788	CLIPBOARD	lure	n/a	n/a	n/a	1
305.037	0.716662032	REPETITION	lure	n/a	n/a	n/a	1
305.754	0.399994943	SUNBONNET	lure	n/a	n/a	n/a	1
306.154	0.516654788	SAUCEPAN	lure	n/a	n/a	n/a	1
306.67	0.699993603	INFLOW	lure	n/a	n/a	n/a	1
307.37	1.016654902	WATERMELON	fruit	627	2	2	1
308.387	0.349993654	METALWORK	lure	n/a	n/a	n/a	1
308.737	0.366659667	COLLISION	lure	n/a	n/a	n/a	1
309.104	0.599994825	HUSK	lure	n/a	n/a	n/a	1
309.704	0.53332708	GAMBLER	lure	n/a	n/a	n/a	1
310.237	0.716657611	VICTOR	lure	n/a	n/a	n/a	1
310.954	0.616653444	LEGIBILITY	lure	n/a	n/a	n/a	1
311.57	0.533329808	DRUNKARD	lure	n/a	n/a	n/a	1
312.104	0.583325302	EARRING	lure	n/a	n/a	n/a	1
312.687	0.683320774	TABLEWARE	lure	n/a	n/a	n/a	1
313.37	0.566662707	MEDIC	lure	n/a	n/a	n/a	1
313.937	0.499993558	HEADSET	lure	n/a	n/a	n/a	1
314.437	0.649987403	BURNER	lure	n/a	n/a	n/a	1
315.087	0.316662506	DISRESPECT	lure	n/a	n/a	n/a	1
315.404	1.016654513	CANTELOUPE	fruit	682	2	2	1
316.42	0.34999423	SPECULATOR	lure	n/a	n/a	n/a	1
316.77	0.666660636	PANORAMA	lure	n/a	n/a	n/a	1
317.437	0.516659835	BRIDEGROOM	lure	n/a	n/a	n/a	1
317.954	0.633323913	SEAPORT	lure	n/a	n/a	n/a	1
318.587	0.533324338	EMBANKMENT	lure	n/a	n/a	n/a	1
319.12	0.683323949	SURVIVOR	lure	n/a	n/a	n/a	1
319.804	0.549996243	VERSE	lure	n/a	n/a	n/a	1
320.354	0.549989088	GOAT	lure	n/a	n/a	n/a	1
320.904	0.566660918	CREATIVITY	lure	n/a	n/a	n/a	1
321.47	0.516660855	CORRECTION	lure	n/a	n/a	n/a	1
321.987	0.366661192	GASP	lure	n/a	n/a	n/a	1
322.353	0.683325798	UPSWING	lure	n/a	n/a	n/a	1
323.037	0.799988636	CRUCIFIX	lure	n/a	n/a	n/a	1
323.837	2.016637285	SAWDUST	long	n/a	n/a	n/a	1
325.853	0.516664855	HAYFORK	lure	n/a	n/a	n/a	1
326.37	0.599986974	CONCLUSION	lure	n/a	n/a	n/a	1
326.97	0.566658398	RESIDENCE	lure	n/a	n/a	n/a	1
327.537	0.699992856	ACTOR	lure	n/a	n/a	n/a	1
328.237	0.433327598	TUNAFISH	lure	n/a	n/a	n/a	1
328.67	0.499994388	DECOR	lure	n/a	n/a	n/a	1
329.17	0.583325268	ORACLE	lure	n/a	n/a	n/a	1
329.753	0.483327875	JAVELIN	lure	n/a	n/a	n/a	1
330.237	0.733323249	ICEHOUSE	lure	n/a	n/a	n/a	1
330.97	0.499993585	COCOA	lure	n/a	n/a	n/a	1
331.47	0.633321295	TIGHTROPE	lure	n/a	n/a	n/a	1
332.103	0.483329103	MARTYRDOM	lure	n/a	n/a	n/a	1
332.587	0.616657332	PERMIT	short	n/a	n/a	n/a	1
333.203	0.449993115	HAVOC	lure	n/a	n/a	n/a	1
333.653	0.53398771	RELUCTANCE	lure	n/a	n/a	n/a	1
334.187	0.732664958	COURTYARD	lure	n/a	n/a	n/a	1
334.92	0.399994135	SANCTUARY	lure	n/a	n/a	n/a	1
335.32	0.333328398	BEQUEST	lure	n/a	n/a	n/a	1
335.653	0.349995673	DILL	lure	n/a	n/a	n/a	1
336.003	0.599991954	TEETH	lure	n/a	n/a	n/a	1
336.603	0.53332789	EXPORT	lure	n/a	n/a	n/a	1
337.137	0.466657037	COWHERD	lure	n/a	n/a	n/a	1
337.603	0.316945049	SANITY	lure	n/a	n/a	n/a	1
337.92	0.633048231	PURIST	lure	n/a	n/a	n/a	1
338.553	0.616654155	PRAGMATIST	lure	n/a	n/a	n/a	1
339.17	0.666658855	MISMATCH	lure	n/a	n/a	n/a	1
339.837	0.516657038	PUNCHER	lure	n/a	n/a	n/a	1
340.353	0.48332682	SOLEMNITY	lure	n/a	n/a	n/a	1
340.837	0.65241464	GALLON	short	n/a	n/a	n/a	1
341.489	0.714234823	MARCHER	lure	n/a	n/a	n/a	1
342.203	0.383326343	JUSTICE	lure	n/a	n/a	n/a	1
342.587	0.399995556	WITCH	lure	n/a	n/a	n/a	1
342.987	0.516663545	CLEFT	lure	n/a	n/a	n/a	1
343.503	0.749990091	QUILT	lure	n/a	n/a	n/a	1
344.253	0.56828022	RADISH	lure	n/a	n/a	n/a	1
344.821	0.548369232	DEFLATION	lure	n/a	n/a	n/a	1
345.37	0.716658832	LOFT	lure	n/a	n/a	n/a	1
346.087	0.716653408	BRAKEMAN	lure	n/a	n/a	n/a	1
346.803	0.733409259	BORROWER	lure	n/a	n/a	n/a	1
347.537	0.683239267	COACHMAN	lure	n/a	n/a	n/a	1
348.22	0.599997521	TEAROOM	lure	n/a	n/a	n/a	1
348.82	0.716710484	FOOTWORK	lure	n/a	n/a	n/a	1
349.537	2.016583074	FLEET	long	n/a	n/a	n/a	1
351.553	0.649991657	EVE	lure	n/a	n/a	n/a	1
352.203	0.421213498	MIDST	lure	n/a	n/a	n/a	1
352.624	0.69544228	EMIGRANT	lure	n/a	n/a	n/a	1
353.32	0.550041168	PRANKSTER	lure	n/a	n/a	n/a	1
353.87	0.383278069	SATIRE	lure	n/a	n/a	n/a	1
354.253	0.649991174	HEN	lure	n/a	n/a	n/a	1
354.903	0.633320733	RECAP	lure	n/a	n/a	n/a	1
355.536	0.633367458	PHONECALL	lure	n/a	n/a	n/a	1
356.17	0.366624574	LADYBIRD	lure	n/a	n/a	n/a	1
356.536	0.449993611	VELVET	lure	n/a	n/a	n/a	1
356.986	0.583320616	UNIT	lure	n/a	n/a	n/a	1
357.57	0.433331251	SLIPSTREAM	lure	n/a	n/a	n/a	1
358.003	2.016642536	CART	long	n/a	n/a	n/a	1
360.02	0.766655245	SHAM	lure	n/a	n/a	n/a	1
360.786	0.699985114	DISSENSION	lure	n/a	n/a	n/a	1
361.486	0.599996626	SPLOTCH	lure	n/a	n/a	n/a	1
362.086	0.366657394	WOODMAN	lure	n/a	n/a	n/a	1
362.453	0.434949646	KEEPER	lure	n/a	n/a	n/a	1
362.888	0.331710531	ORGAN	lure	n/a	n/a	n/a	1
363.22	0.583322373	CAMERAMEN	lure	n/a	n/a	n/a	1
363.803	0.416665196	PASSBOOK	lure	n/a	n/a	n/a	1
364.22	0.666652963	EYELASH	lure	n/a	n/a	n/a	1
364.886	0.45000007	JET	lure	n/a	n/a	n/a	1
365.336	0.666651961	BRONCO	lure	n/a	n/a	n/a	1
366.003	0.703682216	FLINTSTONE	lure	n/a	n/a	n/a	1
366.707	1.062965382	BLACKBERRY	fruit	667	2	2	1
367.77	0.699992222	DISMISSAL	lure	n/a	n/a	n/a	1
368.47	0.416655583	ALFALFA	lure	n/a	n/a	n/a	1
368.886	0.699992123	QUAD	lure	n/a	n/a	n/a	1
369.586	0.733326912	DISPENSER	lure	n/a	n/a	n/a	1
370.32	0.316981869	FENDER	lure	n/a	n/a	n/a	1
370.637	0.599669785	VECTOR	lure	n/a	n/a	n/a	1
371.236	0.499993076	TRANSCRIPT	lure	n/a	n/a	n/a	1
371.736	0.61666596	POLICEMEN	lure	n/a	n/a	n/a	1
372.353	0.666659278	DEGREE	lure	n/a	n/a	n/a	1
373.019	0.549982756	RAZZLE	lure	n/a	n/a	n/a	1
373.569	0.599994782	SPEEDBOAT	lure	n/a	n/a	n/a	1
374.169	0.616654526	VERTEBRAE	lure	n/a	n/a	n/a	1
374.786	0.48333569	EXCURSION	lure	n/a	n/a	n/a	1
375.269	0.6166523	RECORD	short	n/a	n/a	n/a	1
375.886	0.566659216	WINGSPREAD	lure	n/a	n/a	n/a	1
376.453	0.566657687	ROLLER	lure	n/a	n/a	n/a	1
377.019	0.716664014	CONTEXT	lure	n/a	n/a	n/a	1
377.736	0.599990871	HERTZ	lure	n/a	n/a	n/a	1
378.336	0.599987519	REDDING	lure	n/a	n/a	n/a	1
378.936	0.516662198	RIBBING	lure	n/a	n/a	n/a	1
379.453	0.451561751	JUDICIARY	lure	n/a	n/a	n/a	1
379.904	0.648426207	STEED	lure	n/a	n/a	n/a	1
380.553	0.666658867	DOWNING	lure	n/a	n/a	n/a	1
381.219	0.566651007	EXTRUSION	lure	n/a	n/a	n/a	1
381.786	0.516716188	STATEROOM	lure	n/a	n/a	n/a	1
382.303	0.433279374	BONDHOLDER	lure	n/a	n/a	n/a	1
382.736	0.449990423	DILEMMA	lure	n/a	n/a	n/a	1
383.186	0.616657388	SOAP	short	n/a	n/a	n/a	1
383.803	0.39999846	FORTNIGHT	lure	n/a	n/a	n/a	1
384.203	0.733322522	LASER	lure	n/a	n/a	n/a	1
384.936	0.466653739	TOPCOAT	lure	n/a	n/a	n/a	1
385.403	0.599998049	VELOUR	lure	n/a	n/a	n/a	1
386.003	0.366655921	NIECE	lure	n/a	n/a	n/a	1
386.369	0.633331901	CELIBACY	lure	n/a	n/a	n/a	1
387.003	0.716658004	LEADERSHIP	lure	n/a	n/a	n/a	1
387.719	0.6166578	OWNER	lure	n/a	n/a	n/a	1
388.336	0.58332717	MOTORWAY	lure	n/a	n/a	n/a	1
388.919	0.750026132	PETROL	lure	n/a	n/a	n/a	1
389.669	0.366618798	SAVER	lure	n/a	n/a	n/a	1
390.036	0.366665723	ENCORE	lure	n/a	n/a	n/a	1
390.403	0.733317455	BRIBERY	lure	n/a	n/a	n/a	1
391.136	0.533332159	POINTER	lure	n/a	n/a	n/a	1
391.669	2.016641109	CHALK	long	n/a	n/a	n/a	1
393.686	0.61665451	COP	lure	n/a	n/a	n/a	1
394.303	0.683324597	BISHOP	lure	n/a	n/a	n/a	1
394.986	0.60003721	SKYDIVER	lure	n/a	n/a	n/a	1
395.586	0.633280401	STATESMEN	lure	n/a	n/a	n/a	1
396.219	0.4833329	DITTY	lure	n/a	n/a	n/a	1
396.703	0.766655306	BLUEBELL	lure	n/a	n/a	n/a	1
397.469	0.699986867	FIREARM	lure	n/a	n/a	n/a	1
398.169	0.466662536	HAWKER	lure	n/a	n/a	n/a	1
398.636	0.516661123	RADICALISM	lure	n/a	n/a	n/a	1
399.152	0.554447757	ALTRUISM	lure	n/a	n/a	n/a	1
399.707	0.61356356	SACK	short	n/a	n/a	n/a	1
400.32	0.348636584	HISTORY	lure	n/a	n/a	n/a	1
400.669	0.700027186	HOTHEAD	lure	n/a	n/a	n/a	1
401.369	0.73328623	VESTIGE	lure	n/a	n/a	n/a	1
402.102	0.316659399	BASKETBALL	lure	n/a	n/a	n/a	1
402.419	0.449987448	SURVEYOR	lure	n/a	n/a	n/a	1
402.869	0.366667754	LAMPLIGHT	lure	n/a	n/a	n/a	1
403.236	0.333329165	WIDOW	lure	n/a	n/a	n/a	1
403.569	0.49999097	VOCALISM	lure	n/a	n/a	n/a	1
404.069	0.733320202	PAINKILLER	lure	n/a	n/a	n/a	1
404.802	0.516659779	SLIPPAGE	lure	n/a	n/a	n/a	1
405.319	0.433327799	BALLET	lure	n/a	n/a	n/a	1
405.752	0.583335188	HOOF	lure	n/a	n/a	n/a	1
406.336	0.616705862	SPLASHDOWN	lure	n/a	n/a	n/a	1
406.952	0.749932911	GRADIENT	lure	n/a	n/a	n/a	1
407.702	0.649991764	SOFTBALL	lure	n/a	n/a	n/a	1
408.352	2.050023226	STAPLE	long	n/a	n/a	n/a	1
410.402	0.566614611	NEGATION	lure	n/a	n/a	n/a	1
410.969	0.533322079	SUNBURN	lure	n/a	n/a	n/a	1
411.502	0.366662283	CLERK	lure	n/a	n/a	n/a	1
411.869	0.383328616	DUSTER	lure	n/a	n/a	n/a	1
412.252	0.383332951	ROOD	lure	n/a	n/a	n/a	1
412.636	0.449994329	GAGE	lure	n/a	n/a	n/a	1
413.086	0.583326485	TANKER	lure	n/a	n/a	n/a	1
413.669	0.516654438	MANSION	lure	n/a	n/a	n/a	1
414.186	0.533323896	ARCHITECT	lure	n/a	n/a	n/a	1
414.719	0.666700862	HASTE	lure	n/a	n/a	n/a	1
415.386	0.399956877	VESSEL	lure	n/a	n/a	n/a	1
415.786	0.499989619	CHILD	lure	n/a	n/a	n/a	1
416.286	0.633321539	SWEEPSTAKE	lure	n/a	n/a	n/a	1
416.919	0.616665529	CHROME	short	n/a	n/a	n/a	1
417.536	0.616661297	TOOTHPASTE	lure	n/a	n/a	n/a	1
418.152	0.733322735	SYMPHONY	lure	n/a	n/a	n/a	1
418.886	0.733318639	REFINERY	lure	n/a	n/a	n/a	1
419.619	0.516663746	DEMERIT	lure	n/a	n/a	n/a	1
420.136	0.633322685	STIGMA	lure	n/a	n/a	n/a	1
420.769	0.599992365	CIRCUIT	lure	n/a	n/a	n/a	1
421.369	0.383382597	FACADE	lure	n/a	n/a	n/a	1
421.752	0.583267084	TAILWIND	lure	n/a	n/a	n/a	1
422.335	0.499995384	VINYL	lure	n/a	n/a	n/a	1
422.835	0.716662377	BEACON	lure	n/a	n/a	n/a	1
423.552	0.64999167	MINSTREL	lure	n/a	n/a	n/a	1
424.202	0.433326957	INNOCENCE	lure	n/a	n/a	n/a	1
424.635	0.616656425	VULGARITY	lure	n/a	n/a	n/a	1
425.252	1.01669072	ELDERBERRY	fruit	697	2	2	1
426.269	0.333329185	DRAMA	lure	n/a	n/a	n/a	1
426.602	0.383289384	MEMO	lure	n/a	n/a	n/a	1
426.985	0.449994867	HUBBY	lure	n/a	n/a	n/a	1
427.435	0.666704611	STRETCHER	lure	n/a	n/a	n/a	1
428.102	0.483277457	SENDER	lure	n/a	n/a	n/a	1
428.585	0.633327145	OVERGROWTH	lure	n/a	n/a	n/a	1
429.219	0.733323829	VINEYARD	lure	n/a	n/a	n/a	1
429.952	0.383364054	THUG	lure	n/a	n/a	n/a	1
430.335	0.651122245	SPONGE	lure	n/a	n/a	n/a	1
430.987	0.548823586	MIDLAND	lure	n/a	n/a	n/a	1
431.535	0.599990897	BLACKBIRD	lure	n/a	n/a	n/a	1
432.135	0.483327743	CORRIDOR	lure	n/a	n/a	n/a	1
432.619	0.683369452	PEEPER	lure	n/a	n/a	n/a	1
433.302	0.433328728	FEDERALISM	lure	n/a	n/a	n/a	1
433.735	2.016593134	PASTEL	long	n/a	n/a	n/a	1
435.752	0.549991935	FISHBONE	lure	n/a	n/a	n/a	1
436.302	0.316659723	MOTHBALL	lure	n/a	n/a	n/a	1
436.619	0.41666379	WIGWAM	lure	n/a	n/a	n/a	1
437.035	0.466660173	JUNCTURE	lure	n/a	n/a	n/a	1
437.502	0.366660266	MOONBEAM	lure	n/a	n/a	n/a	1
437.869	0.68333165	HOPPER	lure	n/a	n/a	n/a	1
438.552	0.686899255	MITTEN	lure	n/a	n/a	n/a	1
439.239	0.596417691	TREMOR	lure	n/a	n/a	n/a	1
439.835	0.533319152	POWERHOUSE	lure	n/a	n/a	n/a	1
440.369	0.383326348	CROCODILE	lure	n/a	n/a	n/a	1
440.752	0.516668074	REHASH	lure	n/a	n/a	n/a	1
441.269	0.566651974	BREASTBONE	lure	n/a	n/a	n/a	1
441.835	0.383336877	STORYBOOK	lure	n/a	n/a	n/a	1
442.219	0.616658903	CANDLE	short	n/a	n/a	n/a	1
442.835	0.666657353	SHRIMP	lure	n/a	n/a	n/a	1
443.502	0.46665072	THEATRE	lure	n/a	n/a	n/a	1
443.969	0.699995051	THEATER	lure	n/a	n/a	n/a	1
444.669	0.399992793	KILOWATT	lure	n/a	n/a	n/a	1
445.069	0.566658338	COMPLETION	lure	n/a	n/a	n/a	1
445.635	0.466665443	LEGACY	lure	n/a	n/a	n/a	1
446.102	0.699984296	LIVER	lure	n/a	n/a	n/a	1
446.802	0.766662954	BASELINE	lure	n/a	n/a	n/a	1
447.568	0.649985025	FOREARM	lure	n/a	n/a	n/a	1
448.218	0.58332906	STEWARD	lure	n/a	n/a	n/a	1
448.802	0.699990621	CEREAL	lure	n/a	n/a	n/a	1
449.502	0.399990903	GRASSLAND	lure	n/a	n/a	n/a	1
449.902	0.766660186	WAIST	lure	n/a	n/a	n/a	1
450.668	2.016641617	LIGHT	long	n/a	n/a	n/a	1
452.685	0.683321111	VOWEL	lure	n/a	n/a	n/a	1
453.368	0.483324376	MICRON	lure	n/a	n/a	n/a	1
453.852	0.549994794	NUTCASE	lure	n/a	n/a	n/a	1
454.402	0.666663902	SAVIOR	lure	n/a	n/a	n/a	1
455.068	0.716651125	UNANIMITY	lure	n/a	n/a	n/a	1
455.785	0.399993342	ACCIDENT	lure	n/a	n/a	n/a	1
456.185	0.633324575	WILDLIFE	lure	n/a	n/a	n/a	1
456.818	0.516663522	DIESEL	lure	n/a	n/a	n/a	1
457.335	0.7333243	CHICK	lure	n/a	n/a	n/a	1
458.068	0.349999125	TANGENCY	lure	n/a	n/a	n/a	1
458.418	0.366660221	GRAD	lure	n/a	n/a	n/a	1
458.785	0.349997209	IMMOBILITY	lure	n/a	n/a	n/a	1
459.135	0.583316823	REPERTOIRE	lure	n/a	n/a	n/a	1
459.718	0.683376806	AGGRESSOR	lure	n/a	n/a	n/a	1
460.402	0.649941086	PARLOR	lure	n/a	n/a	n/a	1
461.052	0.416660622	PARSONAGE	lure	n/a	n/a	n/a	1
461.468	0.335418972	RATTLER	lure	n/a	n/a	n/a	1
461.804	0.681237693	EQUIPMENT	lure	n/a	n/a	n/a	1
462.485	0.649990497	THERAPY	lure	n/a	n/a	n/a	1
463.135	0.633321967	SURFBOARD	lure	n/a	n/a	n/a	1
463.768	0.466659104	ANNOTATION	lure	n/a	n/a	n/a	1
464.235	0.616658196	RESILIENCE	lure	n/a	n/a	n/a	1
464.852	n/a	INNOVATION	lure	n/a	n/a	n/a	1