onset	duration	stim	cond	RT	resp	cresp	acc
4.051	0.583229589	NAMESAKE	lure	n/a	n/a	n/a	1
4.635	0.666662749	DISPENSARY	lure	n/a	n/a	n/a	1
5.301	0.499986245	COCKATOO	lure	n/a	n/a	n/a	1
5.801	0.699996524	CHALLENGER	lure	n/a	n/a	n/a	1
6.501	0.601609641	PECAN	lure	n/a	n/a	n/a	1
7.103	0.381712011	COUNTDOWN	lure	n/a	n/a	n/a	1
7.485	0.500036727	FLANNEL	lure	n/a	n/a	n/a	1
7.985	2.016594279	CHISEL	long	n/a	n/a	n/a	1
10.001	0.49998596	QUART	lure	n/a	n/a	n/a	1
10.501	0.500054198	RULER	lure	n/a	n/a	n/a	1
11.001	0.699935187	DOMIn/aCE	lure	n/a	n/a	n/a	1
11.701	0.466660646	CANOE	lure	n/a	n/a	n/a	1
12.168	0.499991696	EQUATOR	lure	n/a	n/a	n/a	1
12.668	0.549989629	BACON	lure	n/a	n/a	n/a	1
13.218	0.316657945	ARMFUL	lure	n/a	n/a	n/a	1
13.535	0.599993802	SILICA	lure	n/a	n/a	n/a	1
14.135	0.516667744	DOORWAY	lure	n/a	n/a	n/a	1
14.651	0.533319813	INEQUITY	lure	n/a	n/a	n/a	1
15.185	0.366665052	BEDSPREAD	lure	n/a	n/a	n/a	1
15.551	0.599987868	STORK	lure	n/a	n/a	n/a	1
16.151	0.616662067	PATCH	short	n/a	n/a	n/a	1
16.768	0.699982875	HATCHBACK	lure	n/a	n/a	n/a	1
17.468	0.74998971	CAMERAMAN	lure	n/a	n/a	n/a	1
18.218	0.66666574	BYLAW	lure	n/a	n/a	n/a	1
18.885	0.483317977	LIBRARIAN	lure	n/a	n/a	n/a	1
19.368	0.483326699	NORMALCY	lure	n/a	n/a	n/a	1
19.851	0.650000558	ENTIRETY	lure	n/a	n/a	n/a	1
20.501	0.466655932	STREET	lure	n/a	n/a	n/a	1
20.968	0.566661797	PRESENTER	lure	n/a	n/a	n/a	1
21.534	0.466655826	FLAGPOLE	lure	n/a	n/a	n/a	1
22.001	0.333326777	OBJECTOR	lure	n/a	n/a	n/a	1
22.334	0.649994952	INVALIDISM	lure	n/a	n/a	n/a	1
22.984	0.466658667	IMPUTATION	lure	n/a	n/a	n/a	1
23.451	0.533327595	EXCERPT	lure	n/a	n/a	n/a	1
23.984	0.749990481	OIL	lure	n/a	n/a	n/a	1
24.734	1.016651237	STRAWBERRY	fruit	647	2	2	1
25.751	0.366657758	VOUCHER	lure	n/a	n/a	n/a	1
26.118	0.533324936	RACKETEER	lure	n/a	n/a	n/a	1
26.651	0.649993632	KETCHUP	lure	n/a	n/a	n/a	1
27.301	0.766656665	BUTCHERY	lure	n/a	n/a	n/a	1
28.068	0.354550093	CLOUDBURST	lure	n/a	n/a	n/a	1
28.422	0.345558929	PESSIMIST	lure	n/a	n/a	n/a	1
28.768	0.533206553	APPLICANT	lure	n/a	n/a	n/a	1
29.301	0.466656126	MONOTONY	lure	n/a	n/a	n/a	1
29.768	0.366668992	WEEK	lure	n/a	n/a	n/a	1
30.134	0.44998998	RETINA	lure	n/a	n/a	n/a	1
30.584	0.466660002	SOCIOLOGY	lure	n/a	n/a	n/a	1
31.051	0.616658734	DISCIPLE	lure	n/a	n/a	n/a	1
31.668	0.549995147	MODULATION	lure	n/a	n/a	n/a	1
32.218	0.549986413	TRACKER	lure	n/a	n/a	n/a	1
32.768	2.016647032	BOAT	long	n/a	n/a	n/a	1
34.784	0.766653369	CARRYOVER	lure	n/a	n/a	n/a	1
35.551	0.483323475	HEATER	lure	n/a	n/a	n/a	1
36.034	0.466664438	GERANIUM	lure	n/a	n/a	n/a	1
36.501	0.666649683	JEEP	lure	n/a	n/a	n/a	1
37.168	0.41666621	ENTOMOLOGY	lure	n/a	n/a	n/a	1
37.584	0.751596392	EMISSION	lure	n/a	n/a	n/a	1
38.336	0.61656353	DOORMAT	lure	n/a	n/a	n/a	1
38.952	0.531814919	FRATERNITY	lure	n/a	n/a	n/a	1
39.484	0.549989046	DAYDREAM	lure	n/a	n/a	n/a	1
40.034	0.383332598	INFIRMITY	lure	n/a	n/a	n/a	1
40.418	0.633316986	KITTY	lure	n/a	n/a	n/a	1
41.051	0.616664958	SAND	short	n/a	n/a	n/a	1
41.668	0.566658158	RIVER	lure	n/a	n/a	n/a	1
42.234	0.483323084	NEBULA	lure	n/a	n/a	n/a	1
42.718	0.666657591	LEGISLATOR	lure	n/a	n/a	n/a	1
43.384	0.583329441	WATERSIDE	lure	n/a	n/a	n/a	1
43.968	0.583325333	SNOBBERY	lure	n/a	n/a	n/a	1
44.551	0.466652362	HALL	lure	n/a	n/a	n/a	1
45.017	0.466664604	CORKSCREW	lure	n/a	n/a	n/a	1
45.484	0.716661011	RAVEL	lure	n/a	n/a	n/a	1
46.201	0.699988481	CLERIC	lure	n/a	n/a	n/a	1
46.901	0.383327492	THIEF	lure	n/a	n/a	n/a	1
47.284	0.69999033	BLUEJAY	lure	n/a	n/a	n/a	1
47.984	0.716655054	CASTER	lure	n/a	n/a	n/a	1
48.701	0.554466872	SQUALL	lure	n/a	n/a	n/a	1
49.255	2.0135995	BASIN	long	n/a	n/a	n/a	1
51.269	0.581888144	ANTENNAE	lure	n/a	n/a	n/a	1
51.851	0.366657767	STADIUM	lure	n/a	n/a	n/a	1
52.217	0.533326731	EULOGY	lure	n/a	n/a	n/a	1
52.751	0.549997051	JAVELIN	lure	n/a	n/a	n/a	1
53.301	0.716652087	LADDER	lure	n/a	n/a	n/a	1
54.017	0.466661968	CORDIALITY	lure	n/a	n/a	n/a	1
54.484	0.449998105	JOSH	lure	n/a	n/a	n/a	1
54.934	0.333321954	MORGUE	lure	n/a	n/a	n/a	1
55.267	0.433331688	CLINIC	lure	n/a	n/a	n/a	1
55.701	0.516657387	KIDNAPPER	lure	n/a	n/a	n/a	1
56.217	0.66665724	CAT	lure	n/a	n/a	n/a	1
56.884	0.466658316	ALMOND	lure	n/a	n/a	n/a	1
57.351	2.06664059	RIDGE	long	n/a	n/a	n/a	1
59.417	0.649992699	VENUE	lure	n/a	n/a	n/a	1
60.067	0.502737229	PASSENGER	lure	n/a	n/a	n/a	1
60.57	0.48063319	EDITORSHIP	lure	n/a	n/a	n/a	1
61.051	0.383279247	MIDSUMMER	lure	n/a	n/a	n/a	1
61.434	0.683319308	GOBBLER	lure	n/a	n/a	n/a	1
62.117	0.666657364	HERO	lure	n/a	n/a	n/a	1
62.784	0.316662942	ARMHOLE	lure	n/a	n/a	n/a	1
63.101	0.549996712	MODERATOR	lure	n/a	n/a	n/a	1
63.651	0.566655016	SAVANNAH	lure	n/a	n/a	n/a	1
64.217	0.449991495	PARAKEET	lure	n/a	n/a	n/a	1
64.667	0.399998274	VORTEX	lure	n/a	n/a	n/a	1
65.067	0.716652056	ALDERMEN	lure	n/a	n/a	n/a	1
65.784	1.016654619	MANGO	fruit	726	2	2	1
66.801	0.486968573	ORATOR	lure	n/a	n/a	n/a	1
67.287	0.517561144	OTTER	lure	n/a	n/a	n/a	1
67.805	0.395453642	BURGER	lure	n/a	n/a	n/a	1
68.201	0.466660589	ENDEARMENT	lure	n/a	n/a	n/a	1
68.667	0.383324712	ELECTRON	lure	n/a	n/a	n/a	1
69.05	0.399994734	PROCESSION	lure	n/a	n/a	n/a	1
69.45	0.683382646	SUGARLOAF	lure	n/a	n/a	n/a	1
70.134	0.666598324	CASEBOOK	lure	n/a	n/a	n/a	1
70.8	0.650038499	RATTLER	lure	n/a	n/a	n/a	1
71.451	0.733275832	ZOOLOGY	lure	n/a	n/a	n/a	1
72.184	0.483326933	WITHDRAWAL	lure	n/a	n/a	n/a	1
72.667	0.716660005	DITTY	lure	n/a	n/a	n/a	1
73.384	0.749990773	INSIGNIA	lure	n/a	n/a	n/a	1
74.134	0.766653922	QUARRY	lure	n/a	n/a	n/a	1
74.9	0.616658818	ATLAS	short	n/a	n/a	n/a	1
75.517	0.749985233	HELMET	lure	n/a	n/a	n/a	1
76.267	0.399995947	NEUTRALISM	lure	n/a	n/a	n/a	1
76.667	0.566654857	CORNFLAKE	lure	n/a	n/a	n/a	1
77.234	0.619930603	PIGTAIL	lure	n/a	n/a	n/a	1
77.854	0.450114233	EARPHONE	lure	n/a	n/a	n/a	1
78.304	0.646598943	KNOCKDOWN	lure	n/a	n/a	n/a	1
78.95	0.666663733	PINT	lure	n/a	n/a	n/a	1
79.617	0.349987497	MOTORBIKE	lure	n/a	n/a	n/a	1
79.967	0.51666166	DERIVATION	lure	n/a	n/a	n/a	1
80.484	0.599996495	SENSUALITY	lure	n/a	n/a	n/a	1
81.084	0.699989818	MAPLE	lure	n/a	n/a	n/a	1
81.784	0.349992644	SNOUT	lure	n/a	n/a	n/a	1
82.134	0.650583127	SNOWMAN	lure	n/a	n/a	n/a	1
82.784	0.668567999	PROTON	lure	n/a	n/a	n/a	1
83.453	1.014147806	PINEAPPLE	fruit	641	2	2	1
84.467	0.502548446	STAKEOUT	lure	n/a	n/a	n/a	1
84.969	0.447437354	DEADWOOD	lure	n/a	n/a	n/a	1
85.417	0.51666259	PENMANSHIP	lure	n/a	n/a	n/a	1
85.934	0.416665171	KITTEN	lure	n/a	n/a	n/a	1
86.35	0.466657476	PLENTY	lure	n/a	n/a	n/a	1
86.817	0.749989895	DILIGENCE	lure	n/a	n/a	n/a	1
87.567	0.616655831	TERRYCLOTH	lure	n/a	n/a	n/a	1
88.184	0.749994635	CLAPPER	lure	n/a	n/a	n/a	1
88.934	0.416651925	EXPOSURE	lure	n/a	n/a	n/a	1
89.35	0.666659476	REVELRY	lure	n/a	n/a	n/a	1
90.017	0.74999652	MISCHIEF	lure	n/a	n/a	n/a	1
90.767	0.616653939	COSTUME	lure	n/a	n/a	n/a	1
91.384	0.55200328	BAKERY	lure	n/a	n/a	n/a	1
91.936	1.01464244	PINEAPPLE	fruit	n/a	n/a	2	0
92.95	0.470721378	SILVERWARE	lure	n/a	n/a	n/a	1
93.421	0.362601789	TREASURE	lure	n/a	n/a	n/a	1
93.783	0.416658241	FULLBACK	lure	n/a	n/a	n/a	1
94.2	0.700031036	TERROR	lure	n/a	n/a	n/a	1
94.9	0.749987856	PHYSICIAN	lure	n/a	n/a	n/a	1
95.65	0.566617261	POLARITY	lure	n/a	n/a	n/a	1
96.217	0.733364865	METAL	lure	n/a	n/a	n/a	1
96.95	0.353422886	HEADGEAR	lure	n/a	n/a	n/a	1
97.304	0.413193043	NOBILITY	lure	n/a	n/a	n/a	1
97.717	0.349993111	CHILDREN	lure	n/a	n/a	n/a	1
98.067	0.533323893	GALLEY	lure	n/a	n/a	n/a	1
98.6	0.533327954	SILK	lure	n/a	n/a	n/a	1
99.133	0.483328868	MITIGATION	lure	n/a	n/a	n/a	1
99.617	0.599987209	BEEFCAKE	lure	n/a	n/a	n/a	1
100.217	0.616665793	CHROME	short	n/a	n/a	n/a	1
100.833	0.433326581	BINGO	lure	n/a	n/a	n/a	1
101.267	0.533327092	BOMBSHELL	lure	n/a	n/a	n/a	1
101.8	0.516651627	MARIONETTE	lure	n/a	n/a	n/a	1
102.317	0.349994882	PAYCHECK	lure	n/a	n/a	n/a	1
102.667	0.333328623	FORESIGHT	lure	n/a	n/a	n/a	1
103	0.499994869	INDIGENCE	lure	n/a	n/a	n/a	1
103.5	0.366788912	HYPOCRISY	lure	n/a	n/a	n/a	1
103.867	0.433202017	SACRILEGE	lure	n/a	n/a	n/a	1
104.3	0.683320276	SENSATION	lure	n/a	n/a	n/a	1
104.983	0.766663416	FIN	lure	n/a	n/a	n/a	1
105.75	0.699990195	LIMELIGHT	lure	n/a	n/a	n/a	1
106.45	0.499990815	OUTGROWTH	lure	n/a	n/a	n/a	1
106.95	0.750745594	MAILER	lure	n/a	n/a	n/a	1
107.701	0.682564687	SWEEPER	lure	n/a	n/a	n/a	1
108.383	0.483330691	CORRIDOR	lure	n/a	n/a	n/a	1
108.867	0.61665866	COMPASS	short	n/a	n/a	n/a	1
109.483	0.733321084	NOON	lure	n/a	n/a	n/a	1
110.217	0.733320941	TELLER	lure	n/a	n/a	n/a	1
110.95	0.599990354	COWBELL	lure	n/a	n/a	n/a	1
111.55	0.649993293	AGREEMENT	lure	n/a	n/a	n/a	1
112.2	0.554416694	OILSKIN	lure	n/a	n/a	n/a	1
112.754	0.545571551	INFUSION	lure	n/a	n/a	n/a	1
113.3	0.733316943	ADDRESSEE	lure	n/a	n/a	n/a	1
114.033	0.383335322	ONION	lure	n/a	n/a	n/a	1
114.417	0.699981647	FELLA	lure	n/a	n/a	n/a	1
115.117	0.733325793	FOREFRONT	lure	n/a	n/a	n/a	1
115.85	0.616664504	ACORN	lure	n/a	n/a	n/a	1
116.467	0.549984036	SCORPION	lure	n/a	n/a	n/a	1
117.016	0.616666035	BRIDGE	short	n/a	n/a	n/a	1
117.633	0.483317419	MINUTE	lure	n/a	n/a	n/a	1
118.116	0.500002153	CLASSMATE	lure	n/a	n/a	n/a	1
118.616	0.683317612	TROUGH	lure	n/a	n/a	n/a	1
119.3	0.36665857	INSECURITY	lure	n/a	n/a	n/a	1
119.666	0.366666125	THEOCRACY	lure	n/a	n/a	n/a	1
120.033	0.666656067	DEPARTMENT	lure	n/a	n/a	n/a	1
120.7	0.366660862	REALM	lure	n/a	n/a	n/a	1
121.066	0.466659835	PAWNSHOP	lure	n/a	n/a	n/a	1
121.533	0.716658609	CARPENTER	lure	n/a	n/a	n/a	1
122.25	0.45191046	PARTRIDGE	lure	n/a	n/a	n/a	1
122.702	0.366847192	MOTEL	lure	n/a	n/a	n/a	1
123.069	0.331279144	HUSBANDRY	lure	n/a	n/a	n/a	1
123.4	0.433331732	RIB	lure	n/a	n/a	n/a	1
123.833	0.549940296	EXPEDIENCE	lure	n/a	n/a	n/a	1
124.383	0.350033374	SUNBONNET	lure	n/a	n/a	n/a	1
124.733	0.649946117	LEISURE	lure	n/a	n/a	n/a	1
125.383	1.016652343	MELON	fruit	559	2	2	1
126.4	0.616664582	HOUSECOAT	lure	n/a	n/a	n/a	1
127.016	0.700033944	NEWSREEL	lure	n/a	n/a	n/a	1
127.716	0.349983866	PHOTON	lure	n/a	n/a	n/a	1
128.066	0.666618881	POSTCODE	lure	n/a	n/a	n/a	1
128.733	0.649990907	THING	lure	n/a	n/a	n/a	1
129.383	0.703268386	INSPECTION	lure	n/a	n/a	n/a	1
130.086	0.363386987	HOUSEWORK	lure	n/a	n/a	n/a	1
130.45	0.333324881	NOOK	lure	n/a	n/a	n/a	1
130.783	0.333331543	LIKELIHOOD	lure	n/a	n/a	n/a	1
131.116	0.683320967	DUCKWEED	lure	n/a	n/a	n/a	1
131.8	0.583328081	ADJUSTMENT	lure	n/a	n/a	n/a	1
132.383	0.400038655	RELIANCE	lure	n/a	n/a	n/a	1
132.783	0.433286384	MATURATION	lure	n/a	n/a	n/a	1
133.216	0.766656366	VEGETATION	lure	n/a	n/a	n/a	1
133.983	2.016631355	RATTLE	long	n/a	n/a	n/a	1
136	0.416661744	ZOMBIE	lure	n/a	n/a	n/a	1
136.416	0.583325759	SAWHORSE	lure	n/a	n/a	n/a	1
137	0.766659913	GIRAFFE	lure	n/a	n/a	n/a	1
137.766	0.516659649	HANDLEBAR	lure	n/a	n/a	n/a	1
138.283	0.316657101	RIFF	lure	n/a	n/a	n/a	1
138.6	0.316662461	MARQUEE	lure	n/a	n/a	n/a	1
138.916	0.616722123	STERNUM	lure	n/a	n/a	n/a	1
139.533	0.449929551	DROUGHT	lure	n/a	n/a	n/a	1
139.983	0.500031771	HELPER	lure	n/a	n/a	n/a	1
140.483	0.516622785	ACCUSATION	lure	n/a	n/a	n/a	1
140.999	0.383326199	WRISTWATCH	lure	n/a	n/a	n/a	1
141.383	0.333381945	SUBSIDENCE	lure	n/a	n/a	n/a	1
141.716	0.616613089	JAIL	short	n/a	n/a	n/a	1
142.333	0.416705117	CENSORSHIP	lure	n/a	n/a	n/a	1
142.75	0.733270178	BALSAM	lure	n/a	n/a	n/a	1
143.483	0.383328416	VENDETTA	lure	n/a	n/a	n/a	1
143.866	0.449995836	AIRMEN	lure	n/a	n/a	n/a	1
144.316	0.699992563	CLERK	lure	n/a	n/a	n/a	1
145.016	0.416660462	SUPREMACY	lure	n/a	n/a	n/a	1
145.433	0.683316975	SUBMERSION	lure	n/a	n/a	n/a	1
146.116	0.683325173	FOREIGNER	lure	n/a	n/a	n/a	1
146.799	0.604011838	CUSTODIAN	lure	n/a	n/a	n/a	1
147.403	0.395977371	ACETATE	lure	n/a	n/a	n/a	1
147.799	0.699990522	OVERKILL	lure	n/a	n/a	n/a	1
148.499	0.599986858	VOLT	lure	n/a	n/a	n/a	1
149.099	0.766664877	WEEKDAY	lure	n/a	n/a	n/a	1
149.866	0.666653779	CASKET	lure	n/a	n/a	n/a	1
150.533	2.016635397	SACK	long	n/a	n/a	n/a	1
152.549	0.616663288	FANTASIA	lure	n/a	n/a	n/a	1
153.166	0.58332634	MORTICIAN	lure	n/a	n/a	n/a	1
153.749	0.633318098	FIREBRICK	lure	n/a	n/a	n/a	1
154.383	0.483324248	DRESSER	lure	n/a	n/a	n/a	1
154.866	0.599994081	ANTONYM	lure	n/a	n/a	n/a	1
155.466	0.750028674	PAINTER	lure	n/a	n/a	n/a	1
156.216	0.68329256	URGENCY	lure	n/a	n/a	n/a	1
156.899	0.449986006	NEGOTIATOR	lure	n/a	n/a	n/a	1
157.349	0.600048802	TURBINE	lure	n/a	n/a	n/a	1
157.949	0.449939413	SHRINKAGE	lure	n/a	n/a	n/a	1
158.399	0.599992598	ORCHESTRA	lure	n/a	n/a	n/a	1
158.999	2.016636883	LEAD	long	n/a	n/a	n/a	1
161.016	0.468539189	AUTOCRAT	lure	n/a	n/a	n/a	1
161.484	0.585559153	MEDIATION	lure	n/a	n/a	n/a	1
162.07	0.745877802	JOINER	lure	n/a	n/a	n/a	1
162.816	0.566655253	NEWSLETTER	lure	n/a	n/a	n/a	1
163.383	0.499993857	REPUTATION	lure	n/a	n/a	n/a	1
163.883	0.600028895	TALISMAN	lure	n/a	n/a	n/a	1
164.483	0.416627106	COWLICK	lure	n/a	n/a	n/a	1
164.899	0.466657622	PROBATION	lure	n/a	n/a	n/a	1
165.366	0.437017395	HAYFORK	lure	n/a	n/a	n/a	1
165.803	0.729673886	METAPHOR	lure	n/a	n/a	n/a	1
166.533	0.749952188	BUNNY	lure	n/a	n/a	n/a	1
167.282	0.616653109	ROPE	short	n/a	n/a	n/a	1
167.899	0.466657331	BEAN	lure	n/a	n/a	n/a	1
168.366	0.349995464	MARLIN	lure	n/a	n/a	n/a	1
168.716	0.383372391	GYMNAST	lure	n/a	n/a	n/a	1
169.099	0.683337486	PLAYSUIT	lure	n/a	n/a	n/a	1
169.782	0.499937532	SERUM	lure	n/a	n/a	n/a	1
170.282	0.516658784	CONVECTION	lure	n/a	n/a	n/a	1
170.799	0.61669829	RIBBON	lure	n/a	n/a	n/a	1
171.416	0.333328662	TRIBUTE	lure	n/a	n/a	n/a	1
171.749	0.516619384	CHIPMUNK	lure	n/a	n/a	n/a	1
172.266	0.549992814	OBJECT	lure	n/a	n/a	n/a	1
172.816	0.750939033	SAC	lure	n/a	n/a	n/a	1
173.567	0.599046973	ETIQUETTE	lure	n/a	n/a	n/a	1
174.166	0.616659267	CIDER	lure	n/a	n/a	n/a	1
174.782	0.616652596	SLUGGER	lure	n/a	n/a	n/a	1
175.399	0.650040002	PYRAMID	short	n/a	n/a	n/a	1
176.049	0.633274692	LIVESTOCK	lure	n/a	n/a	n/a	1
176.682	0.349994818	RIM	lure	n/a	n/a	n/a	1
177.032	0.533325858	AGGRESSOR	lure	n/a	n/a	n/a	1
177.566	0.766660452	DRUMHEAD	lure	n/a	n/a	n/a	1
178.332	0.733385786	PUTTER	lure	n/a	n/a	n/a	1
179.066	0.549923488	PROFESSION	lure	n/a	n/a	n/a	1
179.616	0.433334332	CAGE	lure	n/a	n/a	n/a	1
180.049	0.71665796	ROOD	lure	n/a	n/a	n/a	1
180.766	0.699981118	BURR	lure	n/a	n/a	n/a	1
181.466	0.483390919	FEDERALISM	lure	n/a	n/a	n/a	1
181.949	0.583260742	INVALIDITY	lure	n/a	n/a	n/a	1
182.532	0.518980622	TURTLENECK	lure	n/a	n/a	n/a	1
183.051	0.364395367	POTTER	lure	n/a	n/a	n/a	1
183.416	2.016589266	CABLE	long	n/a	n/a	n/a	1
185.432	0.58332079	WHOOPING	lure	n/a	n/a	n/a	1
186.016	0.516659878	GUESSWORK	lure	n/a	n/a	n/a	1
186.532	0.333326893	PERJURY	lure	n/a	n/a	n/a	1
186.866	0.666659701	SOLICITOR	lure	n/a	n/a	n/a	1
187.532	0.466660273	DRUNKARD	lure	n/a	n/a	n/a	1
187.999	0.533327564	COMPLEXION	lure	n/a	n/a	n/a	1
188.532	0.749994382	SYMPOSIUM	lure	n/a	n/a	n/a	1
189.282	0.499983599	SANDSTORM	lure	n/a	n/a	n/a	1
189.782	0.683324457	SHAMMY	lure	n/a	n/a	n/a	1
190.465	0.683332122	DEVOTEE	lure	n/a	n/a	n/a	1
191.149	0.449993687	FENDER	lure	n/a	n/a	n/a	1
191.599	0.616655863	PANEL	short	n/a	n/a	n/a	1
192.215	0.69999133	HOSIERY	lure	n/a	n/a	n/a	1
192.915	0.733321071	DRIVEWAY	lure	n/a	n/a	n/a	1
193.649	0.399997563	RIFT	lure	n/a	n/a	n/a	1
194.049	0.483323776	BANDIT	lure	n/a	n/a	n/a	1
194.532	0.49998943	PAGEANT	lure	n/a	n/a	n/a	1
195.032	0.749990709	BASILICA	lure	n/a	n/a	n/a	1
195.782	0.733322357	SWIMMER	lure	n/a	n/a	n/a	1
196.515	0.749996635	EXPECTANCY	lure	n/a	n/a	n/a	1
197.265	0.683316364	FRAGMENT	lure	n/a	n/a	n/a	1
197.949	0.400000927	HOMESTEAD	lure	n/a	n/a	n/a	1
198.349	0.633949363	TRUANCY	lure	n/a	n/a	n/a	1
198.983	0.499368609	COWGIRL	lure	n/a	n/a	n/a	1
199.482	2.016631982	ENGINE	long	n/a	n/a	n/a	1
201.499	0.416664923	SURFER	lure	n/a	n/a	n/a	1
201.915	0.536233512	MOTIF	lure	n/a	n/a	n/a	1
202.452	0.463824861	AVOCADO	lure	n/a	n/a	n/a	1
202.915	0.48325404	VIRTUOSITY	lure	n/a	n/a	n/a	1
203.399	0.633361349	DISPOSAL	lure	n/a	n/a	n/a	1
204.032	0.383284204	STEPMOTHER	lure	n/a	n/a	n/a	1
204.415	0.333337855	PRECEPTOR	lure	n/a	n/a	n/a	1
204.749	0.633315552	REGGAE	lure	n/a	n/a	n/a	1
205.382	0.683376146	PUZZLER	lure	n/a	n/a	n/a	1
206.065	0.753719821	VIPER	lure	n/a	n/a	n/a	1
206.819	0.512930981	EPISODE	lure	n/a	n/a	n/a	1
207.332	2.016592874	PARADE	long	n/a	n/a	n/a	1
209.349	0.633368569	ADVERB	lure	n/a	n/a	n/a	1
209.982	0.516608422	CONSTABLE	lure	n/a	n/a	n/a	1
210.499	0.616659026	SAVIOR	lure	n/a	n/a	n/a	1
211.115	0.316702911	FAMILY	lure	n/a	n/a	n/a	1
211.432	0.366625626	FINESSE	lure	n/a	n/a	n/a	1
211.799	0.533324853	DAIQUIRI	lure	n/a	n/a	n/a	1
212.332	0.449995568	DEN	lure	n/a	n/a	n/a	1
212.782	0.433327632	HEADREST	lure	n/a	n/a	n/a	1
213.215	0.719964907	ADEQUACY	lure	n/a	n/a	n/a	1
213.935	0.430019117	FOREARM	lure	n/a	n/a	n/a	1
214.365	0.633317456	TRANSLATOR	lure	n/a	n/a	n/a	1
214.998	0.400001047	BACKGAMMON	lure	n/a	n/a	n/a	1
215.398	1.016646203	CRANBERRY	fruit	591	2	2	1
216.415	0.466666769	LEFTHANDER	lure	n/a	n/a	n/a	1
216.882	0.48332654	WILDFOWL	lure	n/a	n/a	n/a	1
217.365	0.533319819	PRIMATE	lure	n/a	n/a	n/a	1
217.898	0.499998749	REFLEX	lure	n/a	n/a	n/a	1
218.398	0.649986404	DEAN	lure	n/a	n/a	n/a	1
219.048	0.720385578	HONEYDEW	lure	n/a	n/a	n/a	1
219.769	0.696266919	BARRAGE	lure	69	2	n/a	0
220.465	0.733320043	GASOLINE	lure	n/a	n/a	n/a	1
221.198	0.433324478	RENEGADE	lure	n/a	n/a	n/a	1
221.632	0.566655857	EXTRACT	lure	n/a	n/a	n/a	1
222.198	0.516667155	NEGATION	lure	n/a	n/a	n/a	1
222.715	0.566652689	PRESSMAN	lure	n/a	n/a	n/a	1
223.282	0.583325105	SLEEVE	lure	n/a	n/a	n/a	1
223.865	0.649990794	APARTHEID	lure	n/a	n/a	n/a	1
224.515	0.616656491	TRINITY	lure	n/a	n/a	n/a	1
225.132	0.799991415	PHANTOM	lure	n/a	n/a	n/a	1
225.932	0.599990761	RIVALRY	lure	n/a	n/a	n/a	1
226.532	0.399994216	POOCH	lure	n/a	n/a	n/a	1
226.932	n/a	BANKER	lure	n/a	n/a	n/a	1
238.015	0.483368024	HOOCH	lure	n/a	n/a	n/a	1
238.498	0.466623794	SATURATION	lure	n/a	n/a	n/a	1
238.965	0.666661659	MOTHER	lure	n/a	n/a	n/a	1
239.631	0.333356051	REALTY	lure	n/a	n/a	n/a	1
239.965	0.399954373	CUPID	lure	n/a	n/a	n/a	1
240.365	0.566667073	ABDOMEN	lure	n/a	n/a	n/a	1
240.931	0.666655942	LIFEBLOOD	lure	n/a	n/a	n/a	1
241.598	0.666654897	DECISION	lure	n/a	n/a	n/a	1
242.265	1.016653604	APPLE	fruit	629	2	2	1
243.281	0.366659866	THEORY	lure	n/a	n/a	n/a	1
243.648	0.649995715	PUFFER	lure	n/a	n/a	n/a	1
244.298	0.566651003	NUTHOUSE	lure	n/a	n/a	n/a	1
244.865	0.333331626	AMBIANCE	lure	n/a	n/a	n/a	1
245.198	0.666662391	WORKMAN	lure	n/a	n/a	n/a	1
245.865	0.316652974	BOULEVARD	lure	n/a	n/a	n/a	1
246.181	0.666663269	PROVIDENT	lure	n/a	n/a	n/a	1
246.848	0.521246317	NEWSPRINT	lure	n/a	n/a	n/a	1
247.369	0.412071885	FINGERTIP	lure	n/a	n/a	n/a	1
247.781	0.416659483	TRAVELLER	lure	n/a	n/a	n/a	1
248.198	0.366662301	LIFETIME	lure	n/a	n/a	n/a	1
248.565	0.599987906	TERRY	lure	n/a	n/a	n/a	1
249.165	0.516664979	ACTIVIST	lure	n/a	n/a	n/a	1
249.681	0.433330331	MULTITUDE	lure	n/a	n/a	n/a	1
250.115	2.016639929	CHISEL	long	n/a	n/a	n/a	1
252.131	0.616655573	MARINER	lure	n/a	n/a	n/a	1
252.748	0.749985121	ENDOWMENT	lure	n/a	n/a	n/a	1
253.498	0.633321657	GLYCERINE	lure	n/a	n/a	n/a	1
254.131	0.583333796	COLLAGE	lure	n/a	n/a	n/a	1
254.715	0.433325762	PENDULUM	lure	n/a	n/a	n/a	1
255.148	0.533322683	ION	lure	n/a	n/a	n/a	1
255.681	0.449990076	ORE	lure	n/a	n/a	n/a	1
256.131	0.733331381	TURNOVER	lure	n/a	n/a	n/a	1
256.865	0.366652801	HORSESHOE	lure	n/a	n/a	n/a	1
257.231	0.699992367	YOUNGSTER	lure	n/a	n/a	n/a	1
257.931	0.551451789	SPARKLER	lure	n/a	n/a	n/a	1
258.483	2.015187625	SACK	long	n/a	n/a	n/a	1
260.498	0.383325876	TRANSPORT	lure	n/a	n/a	n/a	1
260.881	0.733317097	SLATE	lure	n/a	n/a	n/a	1
261.614	0.38332833	DEFROSTER	lure	n/a	n/a	n/a	1
261.998	0.483331246	SUNBURST	lure	n/a	n/a	n/a	1
262.481	0.383320125	CLAMPDOWN	lure	n/a	n/a	n/a	1
262.864	0.36666182	STICKER	lure	n/a	n/a	n/a	1
263.231	0.499996035	MIGRAINE	lure	n/a	n/a	n/a	1
263.731	0.399991832	CENTRALITY	lure	n/a	n/a	n/a	1
264.131	0.51666671	EPIGRAPH	lure	n/a	n/a	n/a	1
264.648	0.550024775	ETHYL	lure	n/a	n/a	n/a	1
265.198	0.316624381	WEAKLING	lure	n/a	n/a	n/a	1
265.514	0.683330238	KICKBACK	lure	n/a	n/a	n/a	1
266.198	0.419168856	METEOR	lure	n/a	n/a	n/a	1
266.617	0.66414339	BRIDGE	short	n/a	n/a	n/a	1
267.281	0.33553925	WOODPECKER	lure	n/a	n/a	n/a	1
267.617	0.684566301	BARBARIAN	lure	n/a	n/a	n/a	1
268.301	0.663206338	WASHBOARD	lure	n/a	n/a	n/a	1
268.964	0.499988271	HORSEPLAY	lure	n/a	n/a	n/a	1
269.464	0.316662632	RHYTHM	lure	n/a	n/a	n/a	1
269.781	0.333386037	CAPSULE	lure	n/a	n/a	n/a	1
270.114	0.516604103	SLOTH	lure	n/a	n/a	n/a	1
270.631	0.316717514	MELANCHOLY	lure	n/a	n/a	n/a	1
270.948	0.416611742	PARODY	lure	n/a	n/a	n/a	1
271.364	0.783321145	EMPIRE	lure	n/a	n/a	n/a	1
272.148	0.649990402	MALICE	lure	n/a	n/a	n/a	1
272.798	0.449993363	REGION	lure	n/a	n/a	n/a	1
273.248	0.666658484	SQUATTER	lure	n/a	n/a	n/a	1
273.914	0.349987919	OBSTACLE	lure	n/a	n/a	n/a	1
274.264	0.616660258	ATLAS	short	n/a	n/a	n/a	1
274.881	0.416667999	WHOOP	lure	n/a	n/a	n/a	1
275.298	0.699983204	RESURGENCE	lure	n/a	n/a	n/a	1
275.998	0.533329186	WARRANTEE	lure	n/a	n/a	n/a	1
276.531	0.416662596	CRITICISM	lure	n/a	n/a	n/a	1
276.948	0.533319928	RADAR	lure	n/a	n/a	n/a	1
277.481	0.74998932	FOOTER	lure	n/a	n/a	n/a	1
278.231	0.399999578	DRAKE	lure	n/a	n/a	n/a	1
278.631	0.383322678	XYLOPHONE	lure	n/a	n/a	n/a	1
279.014	0.683324202	BENCH	lure	n/a	n/a	n/a	1
279.698	0.400036959	INACTION	lure	n/a	n/a	n/a	1
280.098	0.533290144	LYE	lure	n/a	n/a	n/a	1
280.631	0.666649387	STONEWORK	lure	n/a	n/a	n/a	1
281.298	0.583330551	MUSTACHE	lure	n/a	n/a	n/a	1
281.881	0.499989146	PLANTER	lure	n/a	n/a	n/a	1
282.381	0.566659269	DERBY	lure	n/a	n/a	n/a	1
282.948	2.016644932	ENGINE	long	n/a	n/a	n/a	1
284.964	0.616653753	HILLBILLY	lure	n/a	n/a	n/a	1
285.581	0.316662478	INFINITY	lure	n/a	n/a	n/a	1
285.897	0.599993018	SHEEP	lure	n/a	n/a	n/a	1
286.497	0.483320394	BOUNCER	lure	n/a	n/a	n/a	1
286.981	0.666657423	WRINGER	lure	n/a	n/a	n/a	1
287.647	0.383332394	LIMOUSINE	lure	n/a	n/a	n/a	1
288.031	0.666654454	FIGHTER	lure	n/a	n/a	n/a	1
288.697	0.499991379	PITCHFORK	lure	n/a	n/a	n/a	1
289.197	0.433326845	POACHER	lure	n/a	n/a	n/a	1
289.631	0.516664458	DORMITORY	lure	n/a	n/a	n/a	1
290.147	0.366662415	CROSSBEAM	lure	n/a	n/a	n/a	1
290.514	0.683326535	SEXTON	lure	n/a	n/a	n/a	1
291.197	2.016638212	BASIN	long	n/a	n/a	n/a	1
293.214	0.416656748	PENNY	lure	n/a	n/a	n/a	1
293.631	0.516657021	GIGGLE	lure	n/a	n/a	n/a	1
294.147	0.566658871	UNDERBELLY	lure	n/a	n/a	n/a	1
294.714	0.68336139	FACILITY	lure	n/a	n/a	n/a	1
295.397	0.633288016	DISARRAY	lure	n/a	n/a	n/a	1
296.031	0.44999681	HOVERCRAFT	lure	n/a	n/a	n/a	1
296.481	0.433321159	ADVICE	lure	n/a	n/a	n/a	1
296.914	0.73332765	REGISTRY	lure	n/a	n/a	n/a	1
297.647	0.666661468	LONER	lure	n/a	n/a	n/a	1
298.314	0.399993904	ENTROPY	lure	n/a	n/a	n/a	1
298.714	0.499990562	FAREWELL	lure	n/a	n/a	n/a	1
299.214	0.399987969	PHOTOFLASH	lure	n/a	n/a	n/a	1
299.614	1.016657295	GOOSEBERRY	fruit	600	2	2	1
300.631	0.604058477	FAILURE	lure	n/a	n/a	n/a	1
301.235	0.615568617	PANE	lure	n/a	n/a	n/a	1
301.85	0.518412955	TROPHY	lure	n/a	n/a	n/a	1
302.369	0.328595195	TRAFFIC	lure	n/a	n/a	n/a	1
302.697	0.549991847	AUTOGRAPH	lure	n/a	n/a	n/a	1
303.247	0.349995907	STIGMATA	lure	n/a	n/a	n/a	1
303.597	0.333328715	WIDTH	lure	n/a	n/a	n/a	1
303.931	0.566664608	SOLSTICE	lure	n/a	n/a	n/a	1
304.497	0.349993777	LOTTO	lure	n/a	n/a	n/a	1
304.847	0.749986528	IGNORANCE	lure	n/a	n/a	n/a	1
305.597	0.549990075	TAXATION	lure	n/a	n/a	n/a	1
306.147	0.649992162	MOMENTUM	lure	n/a	n/a	n/a	1
306.797	0.399993725	DEITY	lure	n/a	n/a	n/a	1
307.197	0.366668533	BELLBOY	lure	n/a	n/a	n/a	1
307.564	0.616650602	COMPASS	short	n/a	n/a	n/a	1
308.18	0.533329988	LAWYER	lure	n/a	n/a	n/a	1
308.714	0.749986267	MARKDOWN	lure	n/a	n/a	n/a	1
309.464	0.583330849	TRUCE	lure	n/a	n/a	n/a	1
310.047	0.699991343	FUNERAL	lure	n/a	n/a	n/a	1
310.747	0.433326997	ACTIVISM	lure	n/a	n/a	n/a	1
311.18	0.333319227	OBSERVER	lure	n/a	n/a	n/a	1
311.514	0.333336753	IMPRESSION	lure	n/a	n/a	n/a	1
311.847	0.59998748	THIRST	lure	n/a	n/a	n/a	1
312.447	0.333366177	ACETONE	lure	n/a	n/a	n/a	1
312.78	0.549958503	MELODRAMA	lure	n/a	n/a	n/a	1
313.33	0.533322978	GROCERY	lure	n/a	n/a	n/a	1
313.864	0.499994808	RECITATION	lure	n/a	n/a	n/a	1
314.364	0.599985385	POTBELLY	lure	n/a	n/a	n/a	1
314.964	0.449994013	FIREMEN	lure	n/a	n/a	n/a	1
315.414	0.583325224	OBJECTION	lure	n/a	n/a	n/a	1
315.997	2.016646961	LEAD	long	n/a	n/a	n/a	1
318.014	0.466652468	STEPFATHER	lure	n/a	n/a	n/a	1
318.48	0.466740402	PERPLEXITY	lure	n/a	n/a	n/a	1
318.947	0.449954627	CRYPT	lure	n/a	n/a	n/a	1
319.397	0.666623591	ACE	lure	n/a	n/a	n/a	1
320.064	0.466651756	TANTRUM	lure	n/a	n/a	n/a	1
320.53	0.599993609	BREATHER	lure	n/a	n/a	n/a	1
321.13	0.433332628	DANDELION	lure	n/a	n/a	n/a	1
321.564	0.649985442	CABBY	lure	n/a	n/a	n/a	1
322.214	0.516657775	MODE	lure	n/a	n/a	n/a	1
322.73	0.433333852	RAVIOLI	lure	n/a	n/a	n/a	1
323.164	0.699988439	ETHICIST	lure	n/a	n/a	n/a	1
323.864	0.566658841	HEALTH	lure	n/a	n/a	n/a	1
324.43	0.616655671	SAND	short	n/a	n/a	n/a	1
325.047	0.316664199	CARRIAGE	lure	n/a	n/a	n/a	1
325.364	0.533323033	CONSCIENCE	lure	n/a	n/a	n/a	1
325.897	0.699993426	EXCLUSION	lure	n/a	n/a	n/a	1
326.597	0.670756437	DEMERIT	lure	n/a	n/a	n/a	1
327.268	0.312559186	COMMANDO	lure	n/a	n/a	n/a	1
327.58	0.599997434	LACROSSE	lure	n/a	n/a	n/a	1
328.18	0.649989202	HEMISPHERE	lure	n/a	n/a	n/a	1
328.83	0.399996261	FILLER	lure	n/a	n/a	n/a	1
329.23	0.383323675	BRAINWAVE	lure	n/a	n/a	n/a	1
329.614	0.466661436	RHINESTONE	lure	n/a	n/a	n/a	1
330.08	0.466664506	FLEA	lure	n/a	n/a	n/a	1
330.547	0.483319127	TEn/aT	lure	n/a	n/a	n/a	1
331.03	0.533324426	FOXGLOVE	lure	n/a	n/a	n/a	1
331.563	0.649991046	STOREHOUSE	lure	n/a	n/a	n/a	1
332.213	0.416660558	GEOGRAPHER	lure	n/a	n/a	n/a	1
332.63	2.016644938	BOAT	long	n/a	n/a	n/a	1
334.647	0.316658797	SNEAKER	lure	n/a	n/a	n/a	1
334.963	0.383325177	BREAKWATER	lure	n/a	n/a	n/a	1
335.347	0.53333267	PEEPER	lure	n/a	n/a	n/a	1
335.88	0.533327752	BRIEFCASE	lure	n/a	n/a	n/a	1
336.413	0.366653022	CONCOURSE	lure	n/a	n/a	n/a	1
336.78	0.350003764	CHEEK	lure	n/a	n/a	n/a	1
337.13	0.349994867	CONVERSANT	lure	n/a	n/a	n/a	1
337.48	0.366705216	PATRIOTISM	lure	n/a	n/a	n/a	1
337.847	0.716656175	WINE	lure	n/a	n/a	n/a	1
338.563	0.499941174	HYPHEN	lure	n/a	n/a	n/a	1
339.063	0.550044091	MIDSTREAM	lure	n/a	n/a	n/a	1
339.613	0.399951377	GUNSMITH	lure	n/a	n/a	n/a	1
340.013	0.617757164	BEDFELLOW	lure	n/a	n/a	n/a	1
340.631	0.615553701	JAIL	short	n/a	n/a	n/a	1
341.247	0.38332457	HANDGUN	lure	n/a	n/a	n/a	1
341.63	0.433330453	HANDBRAKE	lure	n/a	n/a	n/a	1
342.063	0.483373073	ANACONDA	lure	n/a	n/a	n/a	1
342.547	0.483277173	PLATEFUL	lure	n/a	n/a	n/a	1
343.03	0.566660407	RUMP	lure	n/a	n/a	n/a	1
343.597	0.533325277	CHRONICLE	lure	n/a	n/a	n/a	1
344.13	0.452837392	WANDERER	lure	n/a	n/a	n/a	1
344.583	0.747152529	WRIGHT	lure	n/a	n/a	n/a	1
345.33	0.750034449	ROOFTOP	lure	n/a	n/a	n/a	1
346.08	0.433326973	DIRT	lure	n/a	n/a	n/a	1
346.513	0.599939964	SABBATICAL	lure	n/a	n/a	n/a	1
347.113	0.499995036	STRONGHOLD	lure	n/a	n/a	n/a	1
347.613	0.66666098	FORTITUDE	lure	n/a	n/a	n/a	1
348.28	0.516652939	LANCER	lure	n/a	n/a	n/a	1
348.797	1.016704495	MELON	fruit	569	2	2	1
349.813	0.683321378	PATRIARCHY	lure	n/a	n/a	n/a	1
350.497	0.499943554	COLLAGEN	lure	n/a	n/a	n/a	1
350.997	0.633327305	RENEWAL	lure	n/a	n/a	n/a	1
351.63	0.683327849	TABLOID	lure	n/a	n/a	n/a	1
352.313	0.683369256	THYME	lure	n/a	n/a	n/a	1
352.997	0.74993804	COLLOQUIUM	lure	n/a	n/a	n/a	1
353.747	0.416661013	FISHERMAN	lure	n/a	n/a	n/a	1
354.163	0.383333433	OILSEED	lure	n/a	n/a	n/a	1
354.547	0.716691324	SHELLSHOCK	lure	n/a	n/a	n/a	1
355.263	0.349995018	TABULATION	lure	n/a	n/a	n/a	1
355.613	0.466624706	FATE	lure	n/a	n/a	n/a	1
356.08	0.699986352	GIMMICK	lure	n/a	n/a	n/a	1
356.78	0.499999937	UNICORN	lure	n/a	n/a	n/a	1
357.28	2.049969855	RATTLE	long	n/a	n/a	n/a	1
359.33	0.716656318	CHASTITY	lure	n/a	n/a	n/a	1
360.046	0.566651896	TIMBER	lure	n/a	n/a	n/a	1
360.613	0.716662736	SLEEPER	lure	n/a	n/a	n/a	1
361.33	0.533319516	SEASCAPE	lure	n/a	n/a	n/a	1
361.863	0.416660807	POSTMEN	lure	n/a	n/a	n/a	1
362.28	0.399994581	HANGMAN	lure	n/a	n/a	n/a	1
362.68	0.520968021	TURTLEDOVE	lure	n/a	n/a	n/a	1
363.201	0.662356995	TUTORIAL	lure	n/a	n/a	n/a	1
363.863	0.433328397	COERCION	lure	n/a	n/a	n/a	1
364.296	0.74998276	MUDSLINGER	lure	n/a	n/a	n/a	1
365.046	0.366667909	PANACEA	lure	n/a	n/a	n/a	1
365.413	0.616649903	PATCH	short	n/a	n/a	n/a	1
366.03	0.599991343	TELEPATHY	lure	n/a	n/a	n/a	1
366.63	0.566666486	FOREWORD	lure	n/a	n/a	n/a	1
367.196	0.59999194	HYPOCRITE	lure	n/a	n/a	n/a	1
367.796	0.333329066	PEASANT	lure	n/a	n/a	n/a	1
368.13	0.683323588	QUANTUM	lure	n/a	n/a	n/a	1
368.813	0.583317568	OVERTURE	lure	n/a	n/a	n/a	1
369.396	0.73563895	SPIRIT	lure	n/a	n/a	n/a	1
370.132	0.397680293	PLUMBER	lure	n/a	n/a	n/a	1
370.53	0.749992858	POPULARITY	lure	n/a	n/a	n/a	1
371.28	0.566660498	DECORUM	lure	n/a	n/a	n/a	1
371.846	0.349990828	SAUCER	lure	n/a	n/a	n/a	1
372.196	0.416663207	PARTICIPLE	lure	n/a	n/a	n/a	1
372.613	0.4166551	TURMOIL	lure	n/a	n/a	n/a	1
373.03	0.516659072	FIn/aCIER	lure	n/a	n/a	n/a	1
373.546	0.616666936	PANEL	short	n/a	n/a	n/a	1
374.163	0.516650738	PEN	lure	n/a	n/a	n/a	1
374.68	0.416713872	FIREARM	lure	n/a	n/a	n/a	1
375.096	0.616608212	DIFFUSION	lure	n/a	n/a	n/a	1
375.713	0.449997381	PEA	lure	n/a	n/a	n/a	1
376.163	0.533326489	MEMORY	lure	n/a	n/a	n/a	1
376.696	0.733322947	RECORD	lure	n/a	n/a	n/a	1
377.43	0.733323527	VANGUARD	lure	n/a	n/a	n/a	1
378.163	0.649990857	ANARCHY	lure	n/a	n/a	n/a	1
378.813	0.533326742	SUNDIAL	lure	n/a	n/a	n/a	1
379.346	0.549988975	DEPARTURE	lure	n/a	n/a	n/a	1
379.896	0.549996522	LIPSTICK	lure	n/a	n/a	n/a	1
380.446	0.499988557	SUBSOIL	lure	n/a	n/a	n/a	1
380.946	0.449992647	TREMOR	lure	n/a	n/a	n/a	1
381.396	0.683323419	RAFT	lure	n/a	n/a	n/a	1
382.079	1.016651516	CANTELOUPE	fruit	646	2	2	1
383.096	0.466701635	VANDALISM	lure	n/a	n/a	n/a	1
383.563	0.50001948	BULLETIN	lure	n/a	n/a	n/a	1
384.063	0.383259182	PERISCOPE	lure	n/a	n/a	n/a	1
384.446	0.6999944	LAYOFF	lure	n/a	n/a	n/a	1
385.146	0.333330441	MAYOR	lure	n/a	n/a	n/a	1
385.479	0.599988925	VASE	lure	n/a	n/a	n/a	1
386.079	0.718358508	ROOSTER	lure	n/a	n/a	n/a	1
386.798	0.431623146	BIGAMIST	lure	n/a	n/a	n/a	1
387.229	0.333336319	SALESWOMAN	lure	n/a	n/a	n/a	1
387.563	0.499983314	OXIDATION	lure	n/a	n/a	n/a	1
388.063	0.416662381	AFTERMATH	lure	n/a	n/a	n/a	1
388.479	0.48332837	DETECTIVE	lure	n/a	n/a	n/a	1
388.963	0.383332153	INSISTENCE	lure	n/a	n/a	n/a	1
389.346	0.566655843	TRAGEDY	lure	n/a	n/a	n/a	1
389.913	0.583329451	COMPRESSOR	lure	n/a	n/a	n/a	1
390.496	1.01664993	CHERRY	fruit	662	2	2	1
391.513	0.499993179	CHITCHAT	lure	n/a	n/a	n/a	1
392.013	0.583322232	COWHIDE	lure	n/a	n/a	n/a	1
392.596	0.699994726	DEVIATION	lure	n/a	n/a	n/a	1
393.296	0.766655655	SPROCKET	lure	n/a	n/a	n/a	1
394.063	0.666656589	OAT	lure	n/a	n/a	n/a	1
394.729	0.449986186	NARRATOR	lure	n/a	n/a	n/a	1
395.179	0.600000406	SPHINX	lure	n/a	n/a	n/a	1
395.779	0.719622858	DISMISSAL	lure	n/a	n/a	n/a	1
396.499	0.680355183	CAUSATION	lure	n/a	n/a	n/a	1
397.179	0.616657049	PEPTIDE	lure	n/a	n/a	n/a	1
397.796	0.683318569	LOBBYIST	lure	n/a	n/a	n/a	1
398.479	0.500065723	LOLLY	lure	n/a	n/a	n/a	1
398.979	0.616594339	CHROME	short	n/a	n/a	n/a	1
399.596	0.687912119	FACET	lure	n/a	n/a	n/a	1
400.284	0.562066339	DECREASE	lure	n/a	n/a	n/a	1
400.846	0.366663578	ICEBOX	lure	n/a	n/a	n/a	1
401.213	0.666655142	STREETCAR	lure	n/a	n/a	n/a	1
401.879	0.416664596	ABSORBER	lure	n/a	n/a	n/a	1
402.296	0.549984029	UNDERWORLD	lure	n/a	n/a	n/a	1
402.846	0.483329436	DUCKY	lure	n/a	n/a	n/a	1
403.329	0.633325637	COLUMN	lure	n/a	n/a	n/a	1
403.962	0.699985824	FALCON	lure	n/a	n/a	n/a	1
404.662	0.73332604	GULLY	lure	n/a	n/a	n/a	1
405.396	0.649991187	PRUDENCE	lure	n/a	n/a	n/a	1
406.046	0.599994025	EPIGRAM	lure	n/a	n/a	n/a	1
406.646	0.637261824	HIKER	lure	n/a	n/a	n/a	1
407.283	1.017355365	GOOSEBERRY	fruit	587	2	2	1
408.3	0.345356617	HEADACHE	lure	n/a	n/a	n/a	1
408.646	0.716657974	COUNSELLOR	lure	n/a	n/a	n/a	1
409.362	0.36666151	SOCIALITY	lure	n/a	n/a	n/a	1
409.729	0.649991324	SEGMENT	lure	n/a	n/a	n/a	1
410.379	0.766649857	CHANDELIER	lure	n/a	n/a	n/a	1
411.146	0.733324006	LAUNCHER	lure	n/a	n/a	n/a	1
411.879	0.666653499	HEARTBURN	lure	n/a	n/a	n/a	1
412.546	0.550001554	SODA	lure	n/a	n/a	n/a	1
413.096	0.666648989	DINNER	lure	n/a	n/a	n/a	1
413.762	0.616660062	RADIATOR	lure	n/a	n/a	n/a	1
414.379	0.533324734	LIVER	lure	n/a	n/a	n/a	1
414.912	0.533332485	GOLDMINE	lure	n/a	n/a	n/a	1
415.446	2.016639162	RIDGE	long	n/a	n/a	n/a	1
417.462	0.366654443	NATION	lure	n/a	n/a	n/a	1
417.829	0.683326416	CARROT	lure	n/a	n/a	n/a	1
418.512	0.749985226	ALLEYWAY	lure	n/a	n/a	n/a	1
419.262	0.450001887	LEDGE	lure	n/a	n/a	n/a	1
419.712	0.733322227	LUNCHEON	lure	n/a	n/a	n/a	1
420.446	0.333374633	STRUDEL	lure	n/a	n/a	n/a	1
420.779	0.449978771	BODY	lure	n/a	n/a	n/a	1
421.229	0.699960708	FERRYBOAT	lure	n/a	n/a	n/a	1
421.929	0.649982256	DEFECTOR	lure	n/a	n/a	n/a	1
422.579	0.666660243	NITROGEN	lure	n/a	n/a	n/a	1
423.246	0.533375248	SENTIMENT	lure	n/a	n/a	n/a	1
423.779	2.066588187	CABLE	long	n/a	n/a	n/a	1
425.846	0.599997673	KAYAK	lure	n/a	n/a	n/a	1
426.446	0.549984022	MISERY	lure	n/a	n/a	n/a	1
426.995	0.599991445	INVENTION	lure	n/a	n/a	n/a	1
427.595	0.316662119	INDICATION	lure	n/a	n/a	n/a	1
427.912	0.616658249	LOCKER	lure	n/a	n/a	n/a	1
428.529	0.649990874	JIGSAW	lure	n/a	n/a	n/a	1
429.179	0.733328405	INJUNCTION	lure	n/a	n/a	n/a	1
429.912	0.470370762	MISHAP	lure	n/a	n/a	n/a	1
430.382	0.512947573	PROSECUTOR	lure	n/a	n/a	n/a	1
430.895	0.649989295	LEOPARD	lure	n/a	n/a	n/a	1
431.545	0.619318311	ORTHODOXY	lure	n/a	n/a	n/a	1
432.165	0.614563567	PYRAMID	short	n/a	n/a	n/a	1
432.779	0.749420996	GESTURE	lure	n/a	n/a	n/a	1
433.529	0.666658003	MILLENIUM	lure	n/a	n/a	n/a	1
434.195	0.466659952	SEAMANSHIP	lure	n/a	n/a	n/a	1
434.662	0.433327408	COCHLEA	lure	n/a	n/a	n/a	1
435.095	0.551269533	REALITY	lure	n/a	n/a	n/a	1
435.647	0.333560567	MYTHOLOGY	lure	n/a	n/a	n/a	1
435.98	0.581823936	CREMATION	lure	n/a	n/a	n/a	1
436.562	0.766651138	PAYLOAD	lure	n/a	n/a	n/a	1
437.329	0.449994367	INCIDENCE	lure	n/a	n/a	n/a	1
437.779	0.58332194	SIDEWALK	lure	n/a	n/a	n/a	1
438.362	0.450046366	CHAIRMEN	lure	n/a	n/a	n/a	1
438.812	0.671062018	DECEPTION	lure	n/a	n/a	n/a	1
439.483	0.462210072	CAMERAMEN	lure	n/a	n/a	n/a	1
439.945	0.683325395	GODPARENT	lure	n/a	n/a	n/a	1
440.629	2.016635193	PARADE	long	n/a	n/a	n/a	1
442.645	0.399996529	VERNACULAR	lure	n/a	n/a	n/a	1
443.045	0.383372591	ARROWHEAD	lure	n/a	n/a	n/a	1
443.429	0.649941644	TELECAST	lure	n/a	n/a	n/a	1
444.079	0.433374225	COUNSELOR	lure	n/a	n/a	n/a	1
444.512	0.566614702	VEGETABLE	lure	n/a	n/a	n/a	1
445.079	0.34999688	TRICKERY	lure	n/a	n/a	n/a	1
445.429	0.502766154	FREEHOLDER	lure	n/a	n/a	n/a	1
445.931	0.480546495	SUNSHADE	lure	n/a	n/a	n/a	1
446.412	0.616662031	GENE	lure	n/a	n/a	n/a	1
447.029	0.383329997	INTRICACY	lure	n/a	n/a	n/a	1
447.412	0.599984598	RAINSTORM	lure	n/a	n/a	n/a	1
448.012	0.450001912	TOMBOY	lure	n/a	n/a	n/a	1
448.462	0.449987245	ENCLAVE	lure	n/a	n/a	n/a	1
448.912	0.616665227	ROPE	short	n/a	n/a	n/a	1
449.529	0.633315369	ALLIGATOR	lure	n/a	n/a	n/a	1
450.162	0.366661403	RUBDOWN	lure	n/a	n/a	n/a	1
450.528	0.750040627	PUBLICIST	lure	n/a	n/a	n/a	1
451.279	0.449950819	CRUISER	lure	n/a	n/a	n/a	1
451.728	0.383322049	EQUITY	lure	n/a	n/a	n/a	1
452.112	0.566662806	TERRAIN	lure	n/a	n/a	n/a	1
452.678	0.416663312	WATERMILL	lure	n/a	n/a	n/a	1
453.095	0.383322736	APTITUDE	lure	n/a	n/a	n/a	1
453.478	0.666657481	LARCENY	lure	n/a	n/a	n/a	1
454.145	0.516664147	HANDBOOK	lure	n/a	n/a	n/a	1
454.662	0.666657533	DOVE	lure	n/a	n/a	n/a	1
455.328	0.434484092	CHEMIST	lure	n/a	n/a	n/a	1
455.763	0.732165411	DISASTER	lure	n/a	n/a	n/a	1
456.495	0.499994384	MAKER	lure	n/a	n/a	n/a	1
456.995	0.749989435	CORNFLOWER	lure	n/a	n/a	n/a	1
457.745	0.316702692	NITWIT	lure	n/a	n/a	n/a	1
458.062	0.699947971	SHREDDER	lure	n/a	n/a	n/a	1
458.762	0.583371709	CREATION	lure	n/a	n/a	n/a	1
459.345	0.766606233	PETROL	lure	n/a	n/a	n/a	1
460.112	0.633323674	LIGHTNING	lure	n/a	n/a	n/a	1
460.745	0.416666135	ARMY	lure	n/a	n/a	n/a	1
461.162	0.516703988	GUERRILLA	lure	n/a	n/a	n/a	1
461.678	0.433276651	INFERENCE	lure	n/a	n/a	n/a	1
462.112	0.483333742	BARKER	lure	n/a	n/a	n/a	1
462.595	0.433317935	CARPAL	lure	n/a	n/a	n/a	1
463.028	0.383330352	INFLOW	lure	n/a	n/a	n/a	1
463.412	0.383378519	THUG	lure	n/a	n/a	n/a	1
463.795	0.583273251	COTTONTAIL	lure	n/a	n/a	n/a	1
464.378	n/a	INHIBITION	lure	n/a	n/a	n/a	1