onset	duration	stim	cond	resp	acc	RT
4.05	0.427	EPISODE	lure	n/a	1	n/a
4.484	0.56	FOOTHILL	lure	n/a	1	n/a
5.051	0.428	HIGHSCHOOL	lure	n/a	1	n/a
5.484	0.729	RELICT	lure	n/a	1	n/a
6.217	0.534	WOODWIND	lure	n/a	1	n/a
6.767	0.592	MANSION	lure	n/a	1	n/a
7.371	0.392	EYETEETH	lure	n/a	1	n/a
7.767	0.483	TOPSAIL	lure	n/a	1	n/a
8.267	0.465	LEOTARD	lure	n/a	1	n/a
8.75	0.329	CAVERN	lure	n/a	1	n/a
9.15	0.85	GRANDMA	lure	n/a	1	n/a
10.017	0.501	HEADBOARD	lure	n/a	1	n/a
10.534	2.002	SPONGE	long	n/a	1	n/a
12.55	0.571	VITALITY	lure	n/a	1	n/a
13.134	0.459	STOVE	lure	n/a	1	n/a
13.6	0.63	SPECIALIST	lure	n/a	1	n/a
14.234	0.666	LADYBIRD	lure	n/a	1	n/a
14.917	0.406	ARMORY	lure	n/a	1	n/a
15.334	0.69	OPTIMALITY	lure	n/a	1	n/a
16.035	0.31	PAYROLL	lure	n/a	1	n/a
16.35	0.629	INDICATOR	lure	n/a	1	n/a
16.984	0.505	NERVE	lure	n/a	1	n/a
17.5	0.486	LIBERATION	lure	n/a	1	n/a
18	0.429	TEA	lure	n/a	1	n/a
18.434	0.413	TESTAMENT	lure	n/a	1	n/a
18.85	1.144	CHASER	lure	n/a	1	n/a
20	0.501	STEWARD	lure	n/a	1	n/a
20.517	0.602	PILE	short	n/a	1	n/a
21.134	0.448	ETHYL	lure	n/a	1	n/a
21.6	0.552	SMOCK	lure	n/a	1	n/a
22.235	0.434	CAPACITOR	lure	n/a	1	n/a
22.684	0.652	TAKER	lure	n/a	1	n/a
23.35	0.326	BULKHEAD	lure	n/a	1	n/a
23.684	0.649	COMPLAINT	lure	n/a	1	n/a
24.35	0.732	HERBIVORE	lure	n/a	1	n/a
25.1	0.607	GRIFFIN	lure	n/a	1	n/a
25.719	0.522	SUBSPACE	lure	n/a	1	n/a
26.253	0.399	BALL	lure	n/a	1	n/a
26.667	0.71	FRIEND	lure	n/a	1	n/a
27.384	0.609	CHICK	lure	n/a	1	n/a
28	0.501	METABOLISM	lure	n/a	1	n/a
28.517	2	NOTE	long	n/a	1	n/a
30.533	0.63	EGOISM	lure	n/a	1	n/a
31.167	0.423	STRIKER	lure	n/a	1	n/a
31.6	0.627	LAMP	lure	n/a	1	n/a
32.233	0.726	UNDERTOW	lure	n/a	1	n/a
32.967	0.429	LOAFER	lure	n/a	1	n/a
33.4	0.738	RIBBING	lure	n/a	1	n/a
34.15	0.42	WORKSHEET	lure	n/a	1	n/a
34.583	0.75	STEIN	lure	n/a	1	n/a
35.417	0.316	CATEGORY	lure	n/a	1	n/a
35.75	0.507	PLURALISM	lure	n/a	1	n/a
36.267	0.586	RESOn/aCE	lure	n/a	1	n/a
36.867	0.569	DEFENCE	lure	n/a	1	n/a
37.45	0.543	COTE	lure	n/a	1	n/a
38	0.502	READER	lure	n/a	1	n/a
38.517	1.001	WATERMELON	fruit	detect	1	610
39.533	0.701	PORTRAIT	lure	n/a	1	n/a
40.25	0.676	WRECKER	lure	n/a	1	n/a
40.933	0.352	ALLEGIANCE	lure	n/a	1	n/a
41.3	0.344	SIMULATION	lure	n/a	1	n/a
41.65	0.704	TRUMPETER	lure	n/a	1	n/a
42.367	0.662	EYELID	lure	n/a	1	n/a
43.033	0.581	SPADE	lure	n/a	1	n/a
43.617	0.653	ITEM	lure	n/a	1	n/a
44.283	0.451	JUBILEE	lure	n/a	1	n/a
44.75	0.645	WATCHMAN	lure	n/a	1	n/a
45.4	0.567	EYEFUL	lure	n/a	1	n/a
45.983	0.704	FEET	lure	n/a	1	n/a
46.7	0.385	CINNAMON	lure	n/a	1	n/a
47.167	0.826	En/aICHMENT	lure	n/a	1	n/a
48	0.502	CONFERENCE	lure	n/a	1	n/a
48.517	0.601	BOLT	short	n/a	1	n/a
49.133	0.425	TRAPPER	lure	n/a	1	n/a
49.567	0.649	DIETICIAN	lure	n/a	1	n/a
50.233	0.362	CAMEO	lure	n/a	1	n/a
50.6	0.358	QUICKSTEP	lure	n/a	1	n/a
50.967	0.688	SHOEMAKER	lure	n/a	1	n/a
51.666	0.35	VINYL	lure	n/a	1	n/a
52.033	0.366	HOMESTEAD	lure	n/a	1	n/a
52.416	0.442	DOORKNOB	lure	n/a	1	n/a
52.866	0.548	TEARJERKER	lure	n/a	1	n/a
53.433	0.54	MAJESTY	lure	n/a	1	n/a
53.983	0.609	NEWT	lure	n/a	1	n/a
54.6	0.572	CULTIST	lure	n/a	1	n/a
55.184	0.572	JUMPER	lure	n/a	1	n/a
55.767	0.227	RATION	lure	n/a	1	n/a
56	0.502	SKELETON	lure	n/a	1	n/a
56.516	1.004	APPLE	fruit	detect	1	586
57.533	0.469	PUDDING	lure	n/a	1	n/a
58.083	0.329	ZOO	lure	n/a	1	n/a
58.417	0.448	WORKSHOP	lure	n/a	1	n/a
58.883	0.696	MADMAN	lure	n/a	1	n/a
59.583	0.54	AUDIENCE	lure	n/a	1	n/a
60.133	0.688	DISLOYALTY	lure	n/a	1	n/a
60.833	0.49	BACKLASH	lure	n/a	1	n/a
61.333	0.749	RACIALISM	lure	n/a	1	n/a
62.1	0.432	GORILLA	lure	n/a	1	n/a
62.55	0.673	INEPTITUDE	lure	n/a	1	n/a
63.233	0.355	GUY	lure	n/a	1	n/a
63.6	0.401	CAUSALITY	lure	n/a	1	n/a
64.016	0.501	BREAKAGE	lure	n/a	1	n/a
64.533	2.003	BASKET	long	n/a	1	n/a
66.55	0.681	TALC	lure	n/a	1	n/a
67.25	0.573	CONQUEROR	lure	n/a	1	n/a
67.833	0.553	BONDSMAN	lure	n/a	1	n/a
68.4	0.366	URCHIN	lure	n/a	1	n/a
68.783	0.368	RELATION	lure	n/a	1	n/a
69.166	0.834	EMBROIDERY	lure	n/a	1	n/a
70.016	0.501	PUMA	lure	n/a	1	n/a
70.6	1.004	MULBERRY	fruit	detect	1	759
71.616	0.523	IMMUNITY	lure	n/a	1	n/a
72.15	0.595	WAISTCOAT	lure	n/a	1	n/a
72.75	0.34	PIKE	lure	n/a	1	n/a
73.102	0.707	EUPHORIA	lure	n/a	1	n/a
73.821	0.327	SHOWDOWN	lure	n/a	1	n/a
74.166	0.647	COMPOSURE	lure	n/a	1	n/a
74.833	0.362	INITIATION	lure	n/a	1	n/a
75.2	0.793	MANHOOD	lure	n/a	1	n/a
76	0.501	PULSATION	lure	n/a	1	n/a
76.516	1.006	CHERRY	fruit	detect	1	698
77.533	0.448	RUBELLA	lure	n/a	1	n/a
77.999	0.413	HATCHWAY	lure	n/a	1	n/a
78.416	0.33	EMPORIUM	lure	n/a	1	n/a
78.75	0.667	BRAINWAVE	lure	n/a	1	n/a
79.433	0.511	MIRAGE	lure	n/a	1	n/a
79.949	0.578	GARGOYLE	lure	n/a	1	n/a
80.533	0.413	ISLAND	lure	n/a	1	n/a
80.949	1.044	SUCROSE	lure	n/a	1	n/a
81.999	0.501	HOMELAND	lure	n/a	1	n/a
82.583	2.001	DEPOT	long	n/a	1	n/a
84.599	0.452	REVOLUTION	lure	n/a	1	n/a
85.066	0.667	TRANSCRIPT	lure	n/a	1	n/a
85.749	0.606	DICTATION	lure	n/a	1	n/a
86.366	0.622	KNACK	lure	n/a	1	n/a
86.999	0.582	TENET	lure	n/a	1	n/a
87.599	0.392	BRAKEMAN	lure	n/a	1	n/a
87.999	0.501	BUTCHERY	lure	n/a	1	n/a
88.516	0.603	SIGN	short	n/a	1	n/a
89.133	0.447	FRACTURE	lure	n/a	1	n/a
89.599	0.518	MEMBRANE	lure	n/a	1	n/a
90.133	0.407	LARYNX	lure	n/a	1	n/a
90.552	0.31	ACTIVIST	lure	n/a	1	n/a
90.866	0.472	INSPECTION	lure	n/a	1	n/a
91.35	0.549	EXPRESSWAY	lure	n/a	1	n/a
91.916	0.396	MATINEE	lure	n/a	1	n/a
92.316	0.67	GIN	lure	n/a	1	n/a
92.999	0.569	ANNOUNCER	lure	n/a	1	n/a
93.583	0.326	VAN	lure	n/a	1	n/a
93.916	0.337	DEBILITATE	lure	n/a	1	n/a
94.333	0.606	MOPED	lure	n/a	1	n/a
94.95	0.407	ACCURACY	lure	n/a	1	n/a
95.37	0.623	HAZE	lure	n/a	1	n/a
95.999	0.502	DINOSAUR	lure	n/a	1	n/a
96.516	2.002	SHELL	long	n/a	1	n/a
98.533	0.639	TRIAD	lure	n/a	1	n/a
99.183	0.7	ATROCITY	lure	n/a	1	n/a
99.899	0.423	PIPETTE	lure	n/a	1	n/a
100.332	0.565	LOGGER	lure	n/a	1	n/a
100.916	0.457	LEGIBILITY	lure	n/a	1	n/a
101.382	0.62	ROCKETRY	lure	n/a	1	n/a
102.016	0.333	FISSURE	lure	n/a	1	n/a
102.366	0.529	ANIMAL	lure	n/a	1	n/a
102.899	0.543	PARAPHRASE	lure	n/a	1	n/a
103.449	0.663	MOISTURE	lure	n/a	1	n/a
104.116	0.708	POSTCARD	lure	n/a	1	n/a
104.832	0.369	ROUNDUP	lure	n/a	1	n/a
105.216	0.358	VIOLENCE	lure	n/a	1	n/a
105.582	0.59	EVENT	lure	n/a	1	n/a
106.182	0.411	COSMOLOGY	lure	n/a	1	n/a
106.683	0.534	HERESY	lure	n/a	1	n/a
107.232	0.761	CEREBELLUM	lure	n/a	1	n/a
107.999	0.502	FEROCITY	lure	n/a	1	n/a
108.516	1.001	CHERRY	fruit	detect	1	595
109.532	0.502	RAZORBACK	lure	n/a	1	n/a
110.049	0.642	LIFEBLOOD	lure	n/a	1	n/a
110.699	0.709	CINDER	lure	n/a	1	n/a
111.416	0.725	EJECTOR	lure	n/a	1	n/a
112.149	0.394	STEALTH	lure	n/a	1	n/a
112.549	0.517	FOREARM	lure	n/a	1	n/a
113.082	0.538	TALENT	lure	n/a	1	n/a
113.632	0.7	INFLOW	lure	n/a	1	n/a
114.349	0.583	ABSURDITY	lure	n/a	1	n/a
114.949	0.558	PHONEBOOTH	lure	n/a	1	n/a
115.518	0.72	HOOKY	lure	n/a	1	n/a
116.251	0.516	BRICKYARD	lure	n/a	1	n/a
116.782	0.516	EXCLUSION	lure	n/a	1	n/a
117.316	0.63	CRYBABY	lure	n/a	1	n/a
117.949	0.59	THRIFT	lure	n/a	1	n/a
118.549	0.464	FOOTSIE	lure	n/a	1	n/a
119.099	0.895	STUDENT	lure	n/a	1	n/a
119.999	0.502	CARRYOUT	lure	n/a	1	n/a
120.516	0.602	CORD	short	n/a	1	n/a
121.132	0.502	TRINKET	lure	n/a	1	n/a
121.649	0.453	GOO	lure	n/a	1	n/a
122.116	0.544	DETERRENCE	lure	n/a	1	n/a
122.666	0.492	WOODSMAN	lure	n/a	1	n/a
123.17	0.611	SEAGULL	lure	n/a	1	n/a
123.799	0.478	CATARACT	lure	n/a	1	n/a
124.282	0.728	INDICTMENT	lure	n/a	1	n/a
125.016	0.39	BRILLIANCY	lure	n/a	1	n/a
125.415	0.31	TRILOGY	lure	n/a	1	n/a
125.732	0.544	AMENITY	lure	n/a	1	n/a
126.282	0.307	TIER	lure	n/a	1	n/a
126.599	0.466	HOOPLA	lure	n/a	1	n/a
127.082	0.912	LIBATION	lure	n/a	1	n/a
127.999	0.501	FATALISM	lure	n/a	1	n/a
128.515	0.601	CLOAK	short	n/a	1	n/a
129.132	0.717	MOTTO	lure	n/a	1	n/a
129.865	0.745	SIMPLICITY	lure	n/a	1	n/a
130.699	0.632	CHIFFON	lure	n/a	1	n/a
131.349	0.368	FINCH	lure	n/a	1	n/a
131.732	0.534	RAISER	lure	n/a	1	n/a
132.282	0.658	SHOWMAN	lure	n/a	1	n/a
132.949	0.378	ABSTINENCE	lure	n/a	1	n/a
133.332	0.483	SMUDGE	lure	n/a	1	n/a
133.832	0.49	ATHLETE	lure	n/a	1	n/a
134.332	0.649	OAT	lure	n/a	1	n/a
134.999	0.446	LIFETIME	lure	n/a	1	n/a
135.449	0.647	FERTILITY	lure	n/a	1	n/a
136.099	0.565	RETIREMENT	lure	n/a	1	n/a
136.682	0.407	LOVEBIRD	lure	n/a	1	n/a
137.099	0.894	DEFEATISM	lure	n/a	1	n/a
137.999	0.501	SAUNA	lure	n/a	1	n/a
138.515	0.602	BLIZZARD	short	n/a	1	n/a
139.132	0.613	SPOKESMAN	lure	n/a	1	n/a
139.749	0.715	BLEMISH	lure	n/a	1	n/a
140.482	0.644	SCRUPLE	lure	n/a	1	n/a
141.132	0.727	STOKER	lure	n/a	1	n/a
141.865	0.739	WARREN	lure	n/a	1	n/a
142.682	0.522	SCHOOLROOM	lure	n/a	1	n/a
143.215	0.357	MONGOOSE	lure	n/a	1	n/a
143.582	0.658	CARRIER	lure	n/a	1	n/a
144.249	0.732	GLASSHOUSE	lure	n/a	1	n/a
144.999	0.426	WATERCOLOR	lure	n/a	1	n/a
145.432	0.562	HEADLAMP	lure	n/a	1	n/a
145.999	0.502	FOUNDER	lure	n/a	1	n/a
146.515	0.602	FOIL	short	n/a	1	n/a
147.132	0.581	THEW	lure	n/a	1	n/a
147.732	0.5	PLURALITY	lure	n/a	1	n/a
148.249	0.703	RESPITE	lure	n/a	1	n/a
148.965	0.351	REGGAE	lure	n/a	1	n/a
149.332	0.367	QUICKSAND	lure	n/a	1	n/a
149.715	0.457	ANTHOLOGY	lure	n/a	1	n/a
150.182	0.64	ASSUMPTION	lure	n/a	1	n/a
150.832	0.391	BUZZARD	lure	n/a	1	n/a
151.235	0.44	LAWMAN	lure	n/a	1	n/a
151.682	0.499	STARDOM	lure	n/a	1	n/a
152.198	0.467	RAPIDITY	lure	n/a	1	n/a
152.682	0.609	PALACE	lure	n/a	1	n/a
153.382	0.619	FORGERY	lure	n/a	1	n/a
154.015	0.502	RHUBARB	lure	n/a	1	n/a
154.532	2.003	COAL	long	n/a	1	n/a
156.548	0.52	SILK	lure	n/a	1	n/a
157.082	0.628	SMOG	lure	n/a	1	n/a
157.715	0.725	ZONE	lure	n/a	1	n/a
158.448	0.512	FRAGILITY	lure	n/a	1	n/a
158.965	0.39	GRID	lure	n/a	1	n/a
159.365	0.488	BUFFOON	lure	n/a	1	n/a
159.865	0.346	SPELLER	lure	n/a	1	n/a
160.215	0.746	COMPETENCY	lure	n/a	1	n/a
160.965	0.656	DESERT	lure	n/a	1	n/a
161.633	0.359	APATHY	lure	n/a	1	n/a
161.998	0.503	GROWER	lure	n/a	1	n/a
162.515	0.601	ANCHOR	short	n/a	1	n/a
163.132	0.598	VIVACITY	lure	n/a	1	n/a
163.748	0.328	LANDLORD	lure	n/a	1	n/a
164.082	0.647	BOMBER	lure	n/a	1	n/a
164.748	0.54	STEPFATHER	lure	n/a	1	n/a
165.3	0.34	GRANDCHILD	lure	n/a	1	n/a
165.732	0.458	PARTIALITY	lure	n/a	1	n/a
166.198	0.319	JACKRABBIT	lure	n/a	1	n/a
166.532	0.51	BATCH	lure	n/a	1	n/a
167.048	0.346	REPEATER	lure	n/a	1	n/a
167.398	0.39	TURNOVER	lure	n/a	1	n/a
167.798	0.479	UTILITY	lure	n/a	1	n/a
168.282	0.597	CONCEIT	lure	n/a	1	n/a
168.898	0.379	EMPEROR	lure	n/a	1	n/a
169.282	0.711	VIRTUE	lure	n/a	1	n/a
169.998	0.502	CYNIC	lure	n/a	1	n/a
170.515	1.003	PEACH	fruit	detect	1	588
171.532	0.476	BUMMER	lure	n/a	1	n/a
172.02	0.471	LOOPHOLE	lure	n/a	1	n/a
172.498	0.349	WORKBASKET	lure	n/a	1	n/a
172.865	0.492	MENTOR	lure	n/a	1	n/a
173.365	0.327	STRINGENCY	lure	n/a	1	n/a
173.698	0.549	BRINE	lure	n/a	1	n/a
174.265	0.374	SHELLFISH	lure	n/a	1	n/a
174.648	0.518	ACCOMPLICE	lure	n/a	1	n/a
175.181	0.593	BOUNTY	lure	n/a	1	n/a
175.865	0.517	NEWSFLASH	lure	n/a	1	n/a
176.398	0.515	PENINSULA	lure	n/a	1	n/a
176.931	0.626	MACK	lure	n/a	1	n/a
177.565	0.428	GUNSLINGER	lure	n/a	1	n/a
177.998	0.502	SPRITE	lure	n/a	1	n/a
178.515	2.002	RAIL	long	n/a	1	n/a
180.531	0.632	PATRON	lure	n/a	1	n/a
181.181	0.325	HYPNOTIST	lure	n/a	1	n/a
181.515	0.362	HOUSEBOAT	lure	n/a	1	n/a
181.881	0.35	SWORDSMAN	lure	n/a	1	n/a
182.248	0.586	ODDITY	lure	n/a	1	n/a
182.848	0.68	JACKAL	lure	n/a	1	n/a
183.548	0.444	BENEFACTOR	lure	n/a	1	n/a
183.998	0.502	SANCTUARY	lure	n/a	1	n/a
184.515	2.003	DISC	long	n/a	1	n/a
186.531	0.373	PROM	lure	n/a	1	n/a
186.915	0.734	ASPIRIN	lure	n/a	1	n/a
187.665	0.646	VALENCE	lure	n/a	1	n/a
188.315	0.502	TRIBE	lure	n/a	1	n/a
188.831	0.604	POWDERPUFF	lure	n/a	1	n/a
189.519	0.385	DILEMMA	lure	n/a	1	n/a
189.915	0.731	HEADHUNTER	lure	n/a	1	n/a
190.665	0.699	SLEIGH	lure	n/a	1	n/a
191.381	0.591	FIREBUG	lure	n/a	1	n/a
191.981	0.326	COUPLET	lure	n/a	1	n/a
192.315	0.736	IMPORT	lure	n/a	1	n/a
193.065	0.601	AMORALITY	lure	n/a	1	n/a
193.681	0.312	RICE	lure	n/a	1	n/a
193.998	0.503	ABODE	lure	n/a	1	n/a
194.515	0.603	SOAP	short	n/a	1	n/a
195.131	0.451	ICEBREAKER	lure	n/a	1	n/a
195.598	0.351	SNAPBACK	lure	n/a	1	n/a
195.965	0.325	GOOSE	lure	n/a	1	n/a
196.298	0.613	FATALITY	lure	n/a	1	n/a
196.915	0.637	REALTY	lure	n/a	1	n/a
197.565	0.481	ONLOOKER	lure	n/a	1	n/a
198.065	0.604	POLYNOMIAL	lure	n/a	1	n/a
198.681	0.336	TEPEE	lure	n/a	1	n/a
199.031	0.713	FIREBOX	lure	n/a	1	n/a
199.748	0.423	CORROSION	lure	n/a	1	n/a
200.248	0.481	BRAINCHILD	lure	n/a	1	n/a
200.748	0.726	BEAUTY	lure	n/a	1	n/a
201.481	0.512	DORM	lure	n/a	1	n/a
201.998	0.502	SAC	lure	n/a	1	n/a
202.514	0.601	COAST	short	n/a	1	n/a
203.131	0.35	PLUMBER	lure	n/a	1	n/a
203.498	0.357	VENDOR	lure	n/a	1	n/a
203.864	0.689	DOCTORATE	lure	n/a	1	n/a
204.566	0.717	TABLEWARE	lure	n/a	1	n/a
205.298	0.653	ENCLAVE	lure	n/a	1	n/a
205.964	0.731	CRITIC	lure	n/a	1	n/a
206.714	0.652	ARTISTRY	lure	n/a	1	n/a
207.381	0.611	KITE	lure	n/a	1	n/a
207.998	0.502	RESTRAINT	lure	n/a	1	n/a
208.514	2.001	SUMMIT	long	n/a	1	n/a
210.531	0.527	WARTHOG	lure	n/a	1	n/a
211.064	0.303	FRESHMEN	lure	n/a	1	n/a
211.381	0.336	VERB	lure	n/a	1	n/a
211.731	0.466	EUPHEMISM	lure	n/a	1	n/a
212.214	0.514	AFTERNOON	lure	n/a	1	n/a
212.814	0.455	JAILER	lure	n/a	1	n/a
213.281	0.712	TUB	lure	n/a	1	n/a
213.998	0.501	INACTION	lure	n/a	1	n/a
214.514	2.003	PHONE	long	n/a	1	n/a
216.531	0.494	ARBOR	lure	n/a	1	n/a
217.031	0.496	GUSHER	lure	n/a	1	n/a
217.531	0.421	SPECTRUM	lure	n/a	1	n/a
217.964	0.555	CLOSURE	lure	n/a	1	n/a
218.531	0.307	JOYSTICK	lure	n/a	1	n/a
218.85	0.682	PROSECUTOR	lure	n/a	1	n/a
219.548	0.535	PANTRY	lure	n/a	1	n/a
220.098	0.732	HONEY	lure	n/a	1	n/a
220.848	0.596	PUSHOVER	lure	n/a	1	n/a
221.448	0.435	LATCH	lure	n/a	1	n/a
221.898	0.703	SOYBEAN	lure	n/a	1	n/a
222.614	0.35	SUPERMAN	lure	n/a	1	n/a
222.981	0.306	HOOD	lure	n/a	1	n/a
223.297	0.655	HAREM	lure	n/a	1	n/a
223.964	0.547	DIRECTION	lure	n/a	1	n/a
224.514	0.617	GLEN	lure	n/a	1	n/a
225.214	0.548	BOULDER	lure	n/a	1	n/a
225.781	0.32	HEARSE	lure	n/a	1	n/a
226.114	0.467	GROUNDWORK	lure	n/a	1	n/a
226.597	0.316	INCREASE	lure	n/a	1	n/a
226.931	0.497	FLINTSTONE	lure	n/a	1	n/a
227.431	0.383	SUBURB	lure	n/a	1	n/a
227.831	0.368	MUTTON	lure	n/a	1	n/a
228.214	0.517	CONTEST	lure	n/a	1	n/a
228.747	0.715	HYPHEN	lure	n/a	1	n/a
229.481	0.428	BOOKSTALL	lure	n/a	1	n/a
229.914	0.511	CAMPSITE	lure	n/a	1	n/a
230.431	0.555	DOORNAIL	lure	n/a	1	n/a
230.997	0.596	TRUCE	lure	n/a	1	n/a
231.597	0.405	DRAY	lure	n/a	1	n/a
232.014	0.601	FREIGHTER	lure	n/a	1	n/a
232.631	0.729	GOWN	lure	n/a	1	n/a
233.364	0.598	CATERER	lure	n/a	1	n/a
233.981	0.555	DOWNFALL	lure	n/a	1	n/a
234.547	0.52	SUBSYSTEM	lure	n/a	1	n/a
235.081	0.308	FOREFRONT	lure	n/a	1	n/a
235.481	0.336	UNDERTONE	lure	n/a	1	n/a
235.831	0.359	BULL	lure	n/a	1	n/a
236.197	0.553	CAROL	lure	n/a	1	n/a
236.764	0.652	DISSUASION	lure	n/a	1	n/a
237.431	0.478	STEELMAKER	lure	n/a	1	n/a
237.914	0.327	SLOWPOKE	lure	n/a	1	n/a
238.247	0.713	SPA	lure	n/a	1	n/a
238.964	0.7	WAGTAIL	lure	n/a	1	n/a
239.681	0.383	HILT	lure	n/a	1	n/a
249.947	0.698	TREASURY	lure	n/a	1	n/a
250.664	0.497	CRUELTY	lure	n/a	1	n/a
251.18	0.384	FOREBODING	lure	n/a	1	n/a
251.58	0.337	FLAPJACK	lure	n/a	1	n/a
251.93	0.45	LATRINE	lure	n/a	1	n/a
252.397	0.328	VANE	lure	n/a	1	n/a
252.73	0.502	HEADLAND	lure	n/a	1	n/a
253.247	0.737	DOOR	lure	n/a	1	n/a
253.997	0.501	TURPENTINE	lure	n/a	1	n/a
254.514	0.604	COAST	short	detect	0	413
255.13	0.462	FOREGROUND	lure	n/a	1	n/a
255.68	0.713	FLAMINGO	lure	n/a	1	n/a
256.397	0.706	TABLESPOON	lure	n/a	1	n/a
257.116	0.303	NEWSCASTER	lure	n/a	1	n/a
257.432	0.526	CREATURE	lure	n/a	1	n/a
257.964	0.315	FIANCE	lure	n/a	1	n/a
258.297	0.441	TURMOIL	lure	n/a	1	n/a
258.747	0.327	ROSTER	lure	n/a	1	n/a
259.08	0.39	WILDFIRE	lure	n/a	1	n/a
259.48	0.466	ADOBE	lure	n/a	1	n/a
259.964	0.573	GUARDIAN	lure	n/a	1	n/a
260.547	0.322	THERAPY	lure	n/a	1	n/a
260.88	0.674	DEBASEMENT	lure	n/a	1	n/a
261.566	0.534	ANNEX	lure	n/a	1	n/a
262.114	0.583	TUMBLER	lure	n/a	1	n/a
262.714	0.573	IMPULSE	lure	n/a	1	n/a
263.297	0.696	SANDPIPER	lure	n/a	1	n/a
263.997	0.502	HOORAY	lure	n/a	1	n/a
264.514	2.003	SPONGE	long	n/a	1	n/a
266.53	0.588	DEVIATION	lure	n/a	1	n/a
267.131	0.518	ENAMEL	lure	n/a	1	n/a
267.73	0.541	MATADOR	lure	n/a	1	n/a
268.28	0.547	SILICA	lure	n/a	1	n/a
268.83	0.493	SHOPKEEPER	lure	n/a	1	n/a
269.33	0.368	SARCASM	lure	n/a	1	n/a
269.714	0.511	CLIPBOARD	lure	n/a	1	n/a
270.23	0.568	OUTFIELD	lure	n/a	1	n/a
270.814	0.406	THEORY	lure	n/a	1	n/a
271.23	0.529	SHERRY	lure	n/a	1	n/a
271.764	0.425	DAME	lure	n/a	1	n/a
272.197	0.386	ASPECT	lure	n/a	1	n/a
272.597	0.319	LUNGPOWER	lure	n/a	1	n/a
272.93	0.587	CRUSADER	lure	n/a	1	n/a
273.53	0.454	HIGHLAND	lure	n/a	1	n/a
273.997	0.501	BETTERMENT	lure	n/a	1	n/a
274.513	1.004	NECTARINE	fruit	detect	1	741
275.53	0.626	OVERSIGHT	lure	n/a	1	n/a
276.163	0.717	DIVIDEND	lure	n/a	1	n/a
276.897	0.448	TRUTH	lure	n/a	1	n/a
277.363	0.667	CLAPPER	lure	n/a	1	n/a
278.047	0.456	SAXOPHONE	lure	n/a	1	n/a
278.58	0.566	INEQUALITY	lure	n/a	1	n/a
279.163	0.652	CACHET	lure	n/a	1	n/a
279.83	0.701	CAVEMEN	lure	n/a	1	n/a
280.547	0.459	HABIT	lure	n/a	1	n/a
281.013	0.649	STAIRWELL	lure	n/a	1	n/a
281.68	0.367	BOREDOM	lure	n/a	1	n/a
282.063	0.532	MUSCLEMAN	lure	n/a	1	n/a
282.613	0.705	BURNSIDE	lure	n/a	1	n/a
283.33	0.655	STREAMSIDE	lure	n/a	1	n/a
283.997	0.501	LIQUEUR	lure	n/a	1	n/a
284.513	0.601	BOLT	short	n/a	1	n/a
285.13	0.556	SLAB	lure	n/a	1	n/a
285.697	0.564	COLA	lure	n/a	1	n/a
286.263	0.714	RAINSTORM	lure	n/a	1	n/a
286.98	0.672	FINALE	lure	n/a	1	n/a
287.664	0.693	THRESHOLD	lure	n/a	1	n/a
288.363	0.306	GRAMMAR	lure	n/a	1	n/a
288.68	0.521	FLATTERY	lure	n/a	1	n/a
289.213	0.735	FOOLERY	lure	n/a	1	n/a
289.963	0.678	CORDIALITY	lure	n/a	1	n/a
290.73	0.481	HAY	lure	n/a	1	n/a
291.23	0.754	DROUGHT	lure	n/a	1	n/a
291.997	0.501	BADMINTON	lure	n/a	1	n/a
292.513	0.601	CLOAK	short	n/a	1	n/a
293.13	0.632	WILLPOWER	lure	n/a	1	n/a
293.78	0.699	VIBRANCY	lure	n/a	1	n/a
294.497	0.374	HELM	lure	n/a	1	n/a
294.88	0.394	FLUTE	lure	n/a	1	n/a
295.28	0.531	HANDGUN	lure	n/a	1	n/a
295.83	0.381	SEAWAY	lure	n/a	1	n/a
296.213	0.649	FOREFINGER	lure	n/a	1	n/a
296.88	0.564	HAIRBRUSH	lure	n/a	1	n/a
297.447	0.574	OPERATION	lure	n/a	1	n/a
298.03	0.685	COMPILER	lure	n/a	1	n/a
298.73	0.589	CORRIDOR	lure	n/a	1	n/a
299.33	0.749	CRIME	lure	n/a	1	n/a
300.096	0.595	BUOYANCY	lure	n/a	1	n/a
300.696	0.372	BISCUIT	lure	n/a	1	n/a
301.08	0.424	BEARER	lure	n/a	1	n/a
301.513	0.471	VIDEOTAPE	lure	n/a	1	n/a
302.067	0.502	STAIR	lure	n/a	1	n/a
302.58	1.004	NECTARINE	fruit	detect	1	691
303.596	0.66	CHATTERBOX	lure	n/a	1	n/a
304.267	0.736	ARMHOLE	lure	n/a	1	n/a
305.013	0.454	RAILROAD	lure	n/a	1	n/a
305.48	0.363	TURBULENCE	lure	n/a	1	n/a
305.846	0.739	IMPAIRMENT	lure	n/a	1	n/a
306.596	0.516	HOMETOWN	lure	n/a	1	n/a
307.134	0.385	FARMHAND	lure	n/a	1	n/a
307.531	0.594	CABDRIVER	lure	n/a	1	n/a
308.13	0.605	ALBINO	lure	n/a	1	n/a
308.746	0.738	RESIDENCE	lure	n/a	1	n/a
309.496	0.555	OUTLET	lure	n/a	1	n/a
310.063	0.421	CADET	lure	n/a	1	n/a
310.496	0.443	WOODCOCK	lure	n/a	1	n/a
310.946	0.701	COVERAGE	lure	n/a	1	n/a
311.663	0.322	AORTA	lure	n/a	1	n/a
311.996	0.501	DUALISM	lure	n/a	1	n/a
312.513	2.002	DISC	long	n/a	1	n/a
314.53	0.582	GEOGRAPHY	lure	n/a	1	n/a
315.196	0.708	ORIOLE	lure	n/a	1	n/a
315.915	0.749	FORTNIGHT	lure	n/a	1	n/a
316.68	0.423	STINGER	lure	n/a	1	n/a
317.113	0.59	JEWELER	lure	n/a	1	n/a
317.713	0.271	IMMORALITY	lure	n/a	1	n/a
317.996	0.502	EXEMPTION	lure	n/a	1	n/a
318.513	0.601	CORD	short	n/a	1	n/a
319.13	0.459	DELUGE	lure	n/a	1	n/a
319.6	0.437	HOCKEY	lure	n/a	1	n/a
320.046	0.487	SUET	lure	n/a	1	n/a
320.546	0.53	TONER	lure	n/a	1	n/a
321.08	0.523	WINGSPAN	lure	n/a	1	n/a
321.613	0.448	MANTEL	lure	n/a	1	n/a
322.079	0.335	SHEET	lure	n/a	1	n/a
322.429	0.591	DECEDENT	lure	n/a	1	n/a
323.03	0.455	THIEF	lure	n/a	1	n/a
323.496	0.48	JASMINE	lure	n/a	1	n/a
323.98	0.421	WARRANTY	lure	n/a	1	n/a
324.413	0.515	SUMMERTIME	lure	n/a	1	n/a
324.946	0.482	OVERSPILL	lure	n/a	1	n/a
325.513	0.657	APRON	lure	n/a	1	n/a
326.182	0.495	ELOQUENCE	lure	n/a	1	n/a
326.679	0.662	JOY	lure	n/a	1	n/a
327.346	0.409	ARMADILLO	lure	n/a	1	n/a
327.763	0.221	TRADESMAN	lure	n/a	1	n/a
327.996	0.501	DOGHOUSE	lure	n/a	1	n/a
328.513	2.002	DEPOT	long	n/a	1	n/a
330.529	0.637	WALNUT	lure	n/a	1	n/a
331.179	0.369	EXPRESSION	lure	n/a	1	n/a
331.563	0.462	CAVEMAN	lure	n/a	1	n/a
332.029	0.483	SIFTER	lure	n/a	1	n/a
332.529	0.578	BOWLER	lure	n/a	1	n/a
333.113	0.63	COASTGUARD	lure	n/a	1	n/a
333.746	0.56	BALCONY	lure	n/a	1	n/a
334.317	0.371	ECOSYSTEM	lure	n/a	1	n/a
334.696	0.618	DOGWOOD	lure	n/a	1	n/a
335.329	0.523	STARLET	lure	n/a	1	n/a
335.863	0.62	CURATOR	lure	n/a	1	n/a
336.496	0.469	SMOOTHIE	lure	n/a	1	n/a
336.979	1.006	POET	lure	n/a	1	n/a
338.063	0.502	OPINION	lure	n/a	1	n/a
338.579	2.002	BASKET	long	n/a	1	n/a
340.596	0.66	MIDNIGHT	lure	n/a	1	n/a
341.263	0.316	PILLBOX	lure	n/a	1	n/a
341.596	0.638	UNCLE	lure	n/a	1	n/a
342.246	0.481	HARLEQUIN	lure	n/a	1	n/a
342.729	0.533	OUTFITTER	lure	n/a	1	n/a
343.279	0.727	ATTAINMENT	lure	n/a	1	n/a
344.013	0.635	HUMANISM	lure	n/a	1	n/a
344.663	0.385	JAG	lure	n/a	1	n/a
345.063	0.472	TERRACE	lure	n/a	1	n/a
345.546	0.603	INCREMENT	lure	n/a	1	n/a
346.163	0.684	CONFIDANTE	lure	n/a	1	n/a
346.866	0.74	MEATBALL	lure	n/a	1	n/a
347.613	0.373	CHARGER	lure	n/a	1	n/a
347.996	0.501	AQUARIUM	lure	n/a	1	n/a
348.512	1.003	PLUM	fruit	detect	1	750
349.529	0.585	INTEGRITY	lure	n/a	1	n/a
350.129	0.597	DISCOVERER	lure	n/a	1	n/a
350.729	0.558	HYPOCRITE	lure	n/a	1	n/a
351.362	0.576	GOAL	lure	n/a	1	n/a
351.946	0.625	PIXIE	lure	n/a	1	n/a
352.579	0.457	DEVOTION	lure	n/a	1	n/a
353.047	0.417	INCIDENT	lure	n/a	1	n/a
353.479	0.485	INERTIA	lure	n/a	1	n/a
353.979	0.397	AMBITION	lure	n/a	1	n/a
354.379	0.455	MAGMA	lure	n/a	1	n/a
354.846	0.636	FANFARE	lure	n/a	1	n/a
355.496	0.469	COLONY	lure	n/a	1	n/a
355.979	0.355	POSTMEN	lure	n/a	1	n/a
356.346	0.571	CRAWFISH	lure	n/a	1	n/a
356.929	0.425	CHROMOSOME	lure	n/a	1	n/a
357.362	0.527	MENU	lure	n/a	1	n/a
357.896	0.089	BOXWOOD	lure	n/a	1	n/a
357.996	0.501	FERN	lure	n/a	1	n/a
358.512	0.601	FOIL	short	n/a	1	n/a
359.129	0.576	MONOGRAPH	lure	n/a	1	n/a
359.717	0.732	CARRIAGE	lure	n/a	1	n/a
360.462	0.436	CORRECTION	lure	n/a	1	n/a
360.912	0.675	GODSON	lure	n/a	1	n/a
361.662	0.527	SUGGESTION	lure	n/a	1	n/a
362.196	0.409	TRIPLET	lure	n/a	1	n/a
362.616	0.448	DILIGENCE	lure	n/a	1	n/a
363.079	0.608	SHIRE	lure	n/a	1	n/a
363.696	0.497	IMPLOSION	lure	n/a	1	n/a
364.196	0.517	PATRIOTISM	lure	n/a	1	n/a
364.729	0.406	SCAR	lure	n/a	1	n/a
365.146	0.839	CHICKENPOX	lure	n/a	1	n/a
365.997	0.501	SUNSET	lure	n/a	1	n/a
366.512	2.001	NOTE	long	n/a	1	n/a
368.529	0.487	PORTHOLE	lure	n/a	1	n/a
369.029	0.408	SECRECY	lure	n/a	1	n/a
369.449	0.668	DRIFTWOOD	lure	n/a	1	n/a
370.129	0.303	LIP	lure	n/a	1	n/a
370.446	0.541	PORCH	lure	n/a	1	n/a
370.996	0.533	OBSCURITY	lure	n/a	1	n/a
371.545	0.686	BEEFCAKE	lure	n/a	1	n/a
372.245	0.333	In/aOAD	lure	n/a	1	n/a
372.595	0.389	MODULATION	lure	n/a	1	n/a
372.995	0.989	ERA	lure	n/a	1	n/a
374.062	0.502	GRANDPA	lure	n/a	1	n/a
374.579	2.002	SUMMIT	long	n/a	1	n/a
376.595	0.639	WARRIOR	lure	n/a	1	n/a
377.245	0.439	ELATION	lure	n/a	1	n/a
377.696	0.603	CEREMONY	lure	n/a	1	n/a
378.312	0.333	SIDECAR	lure	n/a	1	n/a
378.662	0.534	PIGPEN	lure	n/a	1	n/a
379.212	0.396	CANAL	lure	n/a	1	n/a
379.612	0.313	INVENTOR	lure	n/a	1	n/a
379.929	0.418	AGREEMENT	lure	n/a	1	n/a
380.362	0.433	SWATCH	lure	n/a	1	n/a
380.812	1.172	AUTO	lure	n/a	1	n/a
381.995	0.501	VOWEL	lure	n/a	1	n/a
382.512	0.602	PILE	short	n/a	1	n/a
383.129	0.683	COMMOTION	lure	n/a	1	n/a
383.829	0.328	POSTERITY	lure	n/a	1	n/a
384.162	0.679	JUNGLE	lure	n/a	1	n/a
384.845	0.37	BASEBALL	lure	n/a	1	n/a
385.229	0.594	PITCHFORK	lure	n/a	1	n/a
385.829	0.612	PULLOVER	lure	n/a	1	n/a
386.529	0.397	CIDER	lure	n/a	1	n/a
386.929	0.508	DIGNITARY	lure	n/a	1	n/a
387.445	0.643	RADICALISM	lure	n/a	1	n/a
388.095	0.543	FISHERMEN	lure	n/a	1	n/a
388.645	0.72	DUDE	lure	n/a	1	n/a
389.379	0.313	LISTENER	lure	n/a	1	n/a
389.695	0.353	CONVEYOR	lure	n/a	1	n/a
390.062	0.459	LETTERHEAD	lure	n/a	1	n/a
390.529	0.559	ASYMMETRY	lure	n/a	1	n/a
391.095	0.89	FORUM	lure	n/a	1	n/a
391.998	0.502	HOMICIDE	lure	n/a	1	n/a
392.512	1.001	BLACKBERRY	fruit	n/a	0	n/a
393.529	0.305	OILSEED	lure	detect	0	6
393.845	0.444	CRESCENDO	lure	n/a	1	n/a
394.295	0.34	SPARROW	lure	n/a	1	n/a
394.645	0.713	TAILWIND	lure	n/a	1	n/a
395.362	0.514	NIGHTSHADE	lure	n/a	1	n/a
395.878	0.741	CAUSATION	lure	n/a	1	n/a
396.631	0.669	SATIRE	lure	n/a	1	n/a
397.312	0.401	PONCHO	lure	n/a	1	n/a
397.795	0.446	POOF	lure	n/a	1	n/a
398.245	0.66	TRIDENT	lure	n/a	1	n/a
398.912	0.459	DIVA	lure	n/a	1	n/a
399.378	0.406	CLOVE	lure	n/a	1	n/a
399.795	0.637	BRETHREN	lure	n/a	1	n/a
400.445	0.65	TUCKER	lure	n/a	1	n/a
401.112	0.436	SOMEONE	lure	n/a	1	n/a
401.562	0.423	KING	lure	n/a	1	n/a
401.995	0.501	PUFFBALL	lure	n/a	1	n/a
402.512	2.001	COAL	long	n/a	1	n/a
404.528	0.403	PEPTIDE	lure	n/a	1	n/a
404.945	0.683	LAUNDROMAT	lure	n/a	1	n/a
405.645	0.388	HEAVEN	lure	n/a	1	n/a
406.045	0.723	DIPLOMAT	lure	n/a	1	n/a
406.778	0.672	COURTHOUSE	lure	n/a	1	n/a
407.462	0.421	ITINERARY	lure	n/a	1	n/a
407.895	0.506	TRINITY	lure	n/a	1	n/a
408.413	0.336	SUITCASE	lure	n/a	1	n/a
408.762	0.439	PROFESSION	lure	n/a	1	n/a
409.212	0.522	REIN	lure	n/a	1	n/a
409.812	0.173	BRACELET	lure	n/a	1	n/a
409.995	0.501	FUSION	lure	n/a	1	n/a
410.512	2.002	PHONE	long	n/a	1	n/a
412.528	0.455	IRRITANT	lure	n/a	1	n/a
412.995	0.437	CARROT	lure	n/a	1	n/a
413.445	0.509	LEGITIMACY	lure	detect	0	314
413.962	0.657	DEPUTY	lure	n/a	1	n/a
414.628	0.353	SUBSCRIBER	lure	n/a	1	n/a
414.995	0.623	MICROSCOPE	lure	n/a	1	n/a
415.629	0.634	ALTO	lure	n/a	1	n/a
416.278	0.555	STINT	lure	n/a	1	n/a
416.845	0.645	CONFETTI	lure	n/a	1	n/a
417.495	0.489	TRIBALISM	lure	n/a	1	n/a
417.995	0.501	YESTERYEAR	lure	n/a	1	n/a
418.512	0.601	ANCHOR	short	n/a	1	n/a
419.128	0.386	BICYCLIST	lure	n/a	1	n/a
419.528	0.719	DANDRUFF	lure	n/a	1	n/a
420.262	0.484	GYMNASIUM	lure	n/a	1	n/a
420.761	0.58	FRATERNITY	lure	n/a	1	n/a
421.345	0.362	CORNCOB	lure	n/a	1	n/a
421.795	0.613	ARROWHEAD	lure	n/a	1	n/a
422.411	0.695	AFTERMATH	lure	n/a	1	n/a
423.111	0.582	WHIMSY	lure	n/a	1	n/a
423.711	0.303	REPRISAL	lure	n/a	1	n/a
424.028	0.357	SETTLEMENT	lure	n/a	1	n/a
424.395	0.497	ESTEEM	lure	n/a	1	n/a
424.895	0.639	NOON	lure	n/a	1	n/a
425.545	0.598	SQUATTER	lure	n/a	1	n/a
426.161	0.702	TINDERBOX	lure	n/a	1	n/a
426.878	0.657	CHIVE	lure	n/a	1	n/a
427.545	0.432	CLAMPDOWN	lure	n/a	1	n/a
427.995	0.502	AVOCATION	lure	n/a	1	n/a
428.511	2.002	SHELL	long	n/a	1	n/a
430.528	0.589	NEUTRALITY	lure	n/a	1	n/a
431.128	0.368	DISTILLERY	lure	n/a	1	n/a
431.511	0.675	DEUCE	lure	n/a	1	n/a
432.195	0.587	CHOICE	lure	n/a	1	n/a
432.795	0.702	ATTENDANT	lure	n/a	1	n/a
433.511	0.664	PROPORTION	lure	n/a	1	n/a
434.178	0.401	MANIA	lure	n/a	1	n/a
434.661	0.377	YELLER	lure	n/a	1	n/a
435.045	0.525	SUNBURST	lure	n/a	1	n/a
435.578	0.647	SCORCHER	lure	n/a	1	n/a
436.228	0.698	DEALER	lure	n/a	1	n/a
436.945	0.572	EPIGRAM	lure	n/a	1	n/a
437.528	0.449	REFERENDUM	lure	n/a	1	n/a
437.995	0.5	GUNPOWDER	lure	n/a	1	n/a
438.511	1.005	PINEAPPLE	fruit	detect	1	599
439.528	0.662	MODERATOR	lure	n/a	1	n/a
440.195	0.555	WINGER	lure	n/a	1	n/a
440.761	0.587	BREAD	lure	n/a	1	n/a
441.361	0.736	CALORIE	lure	n/a	1	n/a
442.111	0.53	GREEn/aOOM	lure	n/a	1	n/a
442.645	0.604	NEWSROOM	lure	n/a	1	n/a
443.261	0.476	EGGPLANT	lure	n/a	1	n/a
443.748	0.637	REALIST	lure	n/a	1	n/a
444.395	0.547	INJUNCTION	lure	n/a	1	n/a
444.945	0.33	LIMESTONE	lure	n/a	1	n/a
445.278	0.708	CHINCHILLA	lure	n/a	1	n/a
445.995	0.5	THRUSH	lure	n/a	1	n/a
446.578	0.472	SIGNPOST	lure	n/a	1	n/a
447.061	0.371	BORER	lure	n/a	1	n/a
447.444	0.533	COMMERCE	lure	n/a	1	n/a
447.994	0.501	PROSTATE	lure	n/a	1	n/a
448.511	0.601	BLIZZARD	short	n/a	1	n/a
449.128	0.411	VIRTUOSITY	lure	n/a	1	n/a
449.544	0.525	TRADITION	lure	n/a	1	n/a
450.078	0.326	EXCUSE	lure	n/a	1	n/a
450.411	0.466	SPOUSE	lure	n/a	1	n/a
450.894	0.493	MANICURE	lure	n/a	1	n/a
451.394	0.645	TOOL	lure	n/a	1	n/a
452.044	0.385	STOPOVER	lure	n/a	1	n/a
452.444	0.331	OREGANO	lure	n/a	1	n/a
452.778	0.737	GREMLIN	lure	n/a	1	n/a
453.528	0.662	DERAILMENT	lure	n/a	1	n/a
454.194	0.367	OFFICE	lure	n/a	1	n/a
454.578	0.651	SAINT	lure	n/a	1	n/a
455.244	0.733	GUIDANCE	lure	n/a	1	n/a
455.994	0.501	DEADLINE	lure	n/a	1	n/a
456.511	2.001	RAIL	long	n/a	1	n/a
458.594	0.548	OBJECT	lure	n/a	1	n/a
459.161	0.71	WOODMAN	lure	n/a	1	n/a
459.878	0.353	CELL	lure	n/a	1	n/a
460.244	0.522	NUMEROLOGY	lure	n/a	1	n/a
460.778	0.508	CANNONBALL	lure	n/a	1	n/a
461.294	0.499	MUSEUM	lure	n/a	1	n/a
461.811	0.675	IMAGERY	lure	n/a	1	n/a
462.498	0.573	FRAGMENT	lure	n/a	1	n/a
463.082	0.73	BOUTIQUE	lure	n/a	1	n/a
463.828	0.149	ATMOSPHERE	lure	n/a	1	n/a
463.994	0.503	CUTICLE	lure	n/a	1	n/a
464.511	1.003	NECTARINE	fruit	detect	1	824
465.528	0.639	APARTMENT	lure	n/a	1	n/a
466.178	0.699	CARTON	lure	n/a	1	n/a
466.894	0.643	COWBOY	lure	n/a	1	n/a
467.544	0.673	ENJOYMENT	lure	n/a	1	n/a
468.228	0.368	WASTEWATER	lure	n/a	1	n/a
468.611	0.684	COLLATION	lure	n/a	1	n/a
469.311	0.536	CLIMATE	lure	n/a	1	n/a
469.861	0.587	SURCHARGE	lure	n/a	1	n/a
470.527	0.661	RAWHIDE	lure	n/a	1	n/a
471.194	0.403	DEFENDER	lure	n/a	1	n/a
471.611	0.619	HANDSAW	lure	n/a	1	n/a
472.244	0.498	DISTEMPER	lure	n/a	1	n/a
472.761	0.693	FOOTNOTE	lure	n/a	1	n/a
473.461	0.516	WRISTBAND	lure	n/a	1	n/a
473.994	0.501	PASSBOOK	lure	n/a	1	n/a
474.511	0.602	SIGN	short	n/a	1	n/a
475.127	0.508	REPORTER	lure	n/a	1	n/a
475.647	0.552	TANG	lure	n/a	1	n/a
476.211	0.505	CLAVICLE	lure	n/a	1	n/a
476.728	0.676	TUXEDO	lure	n/a	1	n/a
477.415	0.41	MATRIX	lure	n/a	1	n/a
477.844	0.481	SESAME	lure	n/a	1	n/a
478.327	0.706	HEARTH	lure	n/a	1	n/a
479.044	0.385	QUARTZ	lure	n/a	1	n/a
479.444	0.459	SYLLABLE	lure	n/a	1	n/a
479.911	0.669	INCOME	lure	n/a	1	n/a
480.594	0.694	LINGO	lure	n/a	1	n/a
481.294	0.683	BUCCANEER	lure	n/a	1	n/a
482.061	0.502	CORNSTARCH	lure	n/a	1	n/a
482.577	0.601	SOAP	short	n/a	1	n/a
483.194	0.643	EXCELLENCY	lure	n/a	1	n/a
483.848	0.361	COHERENCY	lure	n/a	1	n/a
484.227	0.448	FINERY	lure	n/a	1	n/a
484.694	0.527	HANDSHAKE	lure	n/a	1	n/a
485.227	0.548	EARL	lure	n/a	1	n/a
485.794	0.731	EXPERTISE	lure	n/a	1	n/a
486.544	0.427	HONESTY	lure	n/a	1	n/a
486.977	0.673	OVERFLOW	lure	n/a	1	n/a
487.662	0.493	DISHCLOTH	lure	n/a	1	n/a
488.161	0.671	REINDEER	lure	n/a	1	n/a
488.844	0.455	TRAVELLER	lure	n/a	1	n/a
489.311	0.454	SKULLCAP	lure	n/a	1	n/a
489.777	0.5	NODE	lure	n/a	1	n/a