onset	duration	stim	cond	RT	resp	cresp	acc
4.048	0.399997798	INQUIRY	lure	n/a	n/a	n/a	1
4.448	0.333325689	PERIPHERY	lure	n/a	n/a	n/a	1
4.782	0.583321428	MERCHANT	lure	n/a	n/a	n/a	1
5.365	0.350000216	HUMANKIND	lure	n/a	n/a	n/a	1
5.715	0.433326849	PREVISION	lure	n/a	n/a	n/a	1
6.148	0.499992119	IGNITION	lure	n/a	n/a	n/a	1
6.648	0.583328576	TREASURY	lure	n/a	n/a	n/a	1
7.232	0.51665749	HEMLINE	lure	n/a	n/a	n/a	1
7.748	2.016641571	GIFT	long	n/a	n/a	n/a	1
9.765	0.516658053	ESSENCE	lure	n/a	n/a	n/a	1
10.282	0.333329516	SHEEPDOG	lure	n/a	n/a	n/a	1
10.615	0.49999212	STATUE	lure	n/a	n/a	n/a	1
11.115	0.383328344	SPARROW	lure	n/a	n/a	n/a	1
11.498	0.349996378	GIST	lure	n/a	n/a	n/a	1
11.848	0.616657851	CHAIRMEN	lure	n/a	n/a	n/a	1
12.465	0.549994148	AUDITORIUM	lure	n/a	n/a	n/a	1
13.015	0.566657546	POINTER	lure	n/a	n/a	n/a	1
13.582	0.59999143	CARTOONIST	lure	n/a	n/a	n/a	1
14.181	0.583324588	WHIMSY	lure	n/a	n/a	n/a	1
14.765	0.349996441	IDIOM	lure	n/a	n/a	n/a	1
15.115	0.566658348	ALIGNMENT	lure	n/a	n/a	n/a	1
15.681	0.549994812	REACTIVITY	lure	n/a	n/a	n/a	1
16.231	2.016638534	PUTTY	long	n/a	n/a	n/a	1
18.248	0.349995987	INFLICTION	lure	n/a	n/a	n/a	1
18.598	0.316662003	MARTINI	lure	n/a	n/a	n/a	1
18.915	0.483326282	MESSENGER	lure	n/a	n/a	n/a	1
19.398	0.733322891	TORMENT	lure	n/a	n/a	n/a	1
20.131	0.333329526	MEALTIME	lure	n/a	n/a	n/a	1
20.465	0.734555174	PHENOMENON	lure	n/a	n/a	n/a	1
21.199	0.448762889	EMBANKMENT	lure	n/a	n/a	n/a	1
21.648	0.516658397	MORTAR	lure	n/a	n/a	n/a	1
22.165	0.749990071	HYPERBOLA	lure	n/a	n/a	n/a	1
22.915	0.733326151	BRUSHWORK	lure	n/a	n/a	n/a	1
23.648	0.483324325	NUMEROLOGY	lure	n/a	n/a	n/a	1
24.131	0.616660483	COAT	short	n/a	n/a	n/a	1
24.748	0.316659937	MIRACLE	lure	n/a	n/a	n/a	1
25.065	0.666658005	BROOMSTICK	lure	n/a	n/a	n/a	1
25.731	0.699990303	DRAPER	lure	n/a	n/a	n/a	1
26.431	0.333328799	MANTLE	lure	n/a	n/a	n/a	1
26.765	0.699991222	STATEMENT	lure	n/a	n/a	n/a	1
27.465	0.566658446	SPITFIRE	lure	n/a	n/a	n/a	1
28.031	0.633325806	TOOLMAKER	lure	n/a	n/a	n/a	1
28.665	0.349990671	ALLEYWAY	lure	n/a	n/a	n/a	1
29.015	0.433331098	CONFIDANTE	lure	n/a	n/a	n/a	1
29.448	0.616658079	RAZOR	lure	n/a	n/a	n/a	1
30.065	0.466661292	DIGNITY	lure	n/a	n/a	n/a	1
30.531	0.416660309	COLLIE	lure	n/a	n/a	n/a	1
30.948	0.68332096	SNOOK	lure	n/a	n/a	n/a	1
31.631	0.49999251	ENGRAVER	lure	n/a	n/a	n/a	1
32.131	0.449997791	HEADBAND	lure	n/a	n/a	n/a	1
32.581	0.616658809	CHART	short	n/a	n/a	n/a	1
33.198	0.749992313	FEATHERBED	lure	n/a	n/a	n/a	1
33.948	0.670104119	DEVICE	lure	n/a	n/a	n/a	1
34.618	0.546544774	SUBMISSION	lure	n/a	n/a	n/a	1
35.165	0.416659747	CONGRUITY	lure	n/a	n/a	n/a	1
35.581	0.316663993	ANATOMY	lure	n/a	n/a	n/a	1
35.898	0.516657696	GIGGLE	lure	n/a	n/a	n/a	1
36.415	0.433329533	DROPOUT	lure	n/a	n/a	n/a	1
36.848	0.349995341	HIDEAWAY	lure	n/a	n/a	n/a	1
37.198	0.516659407	FLAPJACK	lure	n/a	n/a	n/a	1
37.715	0.716654744	ARK	lure	n/a	n/a	n/a	1
38.431	0.316663693	FEELER	lure	n/a	n/a	n/a	1
38.748	0.733320222	CHILD	lure	n/a	n/a	n/a	1
39.481	0.566663152	DRIFTER	lure	n/a	n/a	n/a	1
40.048	0.619637581	PARADOX	lure	n/a	n/a	n/a	1
40.667	0.613677102	JAIL	short	n/a	n/a	n/a	1
41.281	0.616662516	CURBSIDE	lure	n/a	n/a	n/a	1
41.898	0.516659242	INIQUITY	lure	n/a	n/a	n/a	1
42.414	0.333326581	DYNAMISM	lure	n/a	n/a	n/a	1
42.748	0.366663137	VIBRANCY	lure	n/a	n/a	n/a	1
43.114	0.537350393	MEMBRANE	lure	n/a	n/a	n/a	1
43.652	0.645966483	SPECTER	lure	n/a	n/a	n/a	1
44.298	0.483322776	CRAWLSPACE	lure	n/a	n/a	n/a	1
44.781	0.699993718	ALTO	lure	n/a	n/a	n/a	1
45.481	0.383328124	FOLDER	lure	n/a	n/a	n/a	1
45.864	0.349997195	SUBSPACE	lure	n/a	n/a	n/a	1
46.214	0.333329153	INDIGNITY	lure	n/a	n/a	n/a	1
46.548	0.451963135	COLONIST	lure	n/a	n/a	n/a	1
47	0.414691049	ASPHALT	lure	n/a	n/a	n/a	1
47.414	0.783321619	GIMMICK	lure	n/a	n/a	n/a	1
48.198	0.349995145	BULLDOZER	lure	n/a	n/a	n/a	1
48.548	2.016642726	PARADE	long	n/a	n/a	n/a	1
50.564	0.433324567	GRENADE	lure	n/a	n/a	n/a	1
50.998	0.499989641	PRISONER	lure	n/a	n/a	n/a	1
51.498	0.49999794	BAROMETER	lure	n/a	n/a	n/a	1
51.998	0.549990311	TEAMWORK	lure	n/a	n/a	n/a	1
52.548	0.51666209	CUISINE	lure	n/a	n/a	n/a	1
53.064	0.59999124	COOKIE	lure	n/a	n/a	n/a	1
53.664	0.61665835	CONVEYER	lure	n/a	n/a	n/a	1
54.281	0.449995163	APPARITION	lure	n/a	n/a	n/a	1
54.731	0.666652779	PRETZEL	lure	n/a	n/a	n/a	1
55.398	0.36666607	OCTANE	lure	n/a	n/a	n/a	1
55.764	0.533325216	INSOMNIA	lure	n/a	n/a	n/a	1
56.298	0.683322102	WAGTAIL	lure	n/a	n/a	n/a	1
56.981	0.616661011	ENGINE	short	n/a	n/a	n/a	1
57.598	0.516656344	MANTEL	lure	n/a	n/a	n/a	1
58.114	0.683327055	HASP	lure	n/a	n/a	n/a	1
58.798	0.649991196	REPLICA	lure	n/a	n/a	n/a	1
59.448	0.616655124	INVOCATION	lure	n/a	n/a	n/a	1
60.064	0.483330375	WHACKER	lure	n/a	n/a	n/a	1
60.548	0.483325271	GATEKEEPER	lure	n/a	n/a	n/a	1
61.031	0.383329842	EULOGY	lure	n/a	n/a	n/a	1
61.414	0.616658054	BARN	lure	n/a	n/a	n/a	1
62.031	0.583350733	PUNISHMENT	lure	n/a	n/a	n/a	1
62.614	0.433299387	PERSUASION	lure	n/a	n/a	n/a	1
63.048	0.350002744	THRESHOLD	lure	n/a	n/a	n/a	1
63.398	0.499988306	DICTATION	lure	n/a	n/a	n/a	1
63.897	0.349995797	SPIRIT	lure	n/a	n/a	n/a	1
64.247	0.499990748	CHALICE	lure	n/a	n/a	n/a	1
64.747	0.566712514	PLAYGROUP	lure	n/a	n/a	n/a	1
65.314	2.016588715	PUMP	long	n/a	n/a	n/a	1
67.331	0.683371595	JOVIALITY	lure	n/a	n/a	n/a	1
68.014	0.38327665	BIGAMY	lure	n/a	n/a	n/a	1
68.397	0.366665165	HEDONISM	lure	n/a	n/a	n/a	1
68.764	0.666654902	HUSBANDRY	lure	n/a	n/a	n/a	1
69.431	0.383392665	WILDLIFE	lure	n/a	n/a	n/a	1
69.814	0.685525994	GODMOTHER	lure	n/a	n/a	n/a	1
70.5	0.464397246	NECKTIE	lure	n/a	n/a	n/a	1
70.964	0.616661207	EYELID	lure	n/a	n/a	n/a	1
71.581	0.366659914	DESOLATION	lure	n/a	n/a	n/a	1
71.947	0.333329143	ALLOCATION	lure	n/a	n/a	n/a	1
72.281	0.399992242	TREASURE	lure	n/a	n/a	n/a	1
72.681	0.349995904	STIGMA	lure	n/a	n/a	n/a	1
73.031	0.766656811	HONEYDEW	lure	n/a	n/a	n/a	1
73.797	1.016722044	MANGO	fruit	385	2	2	1
74.814	0.316643979	LIKELIHOOD	lure	n/a	n/a	n/a	1
75.131	0.349946208	CASEWORKER	lure	n/a	n/a	n/a	1
75.481	0.733325016	ASPIRIN	lure	n/a	n/a	n/a	1
76.214	0.602349156	REMOVAL	lure	n/a	n/a	n/a	1
76.816	0.397684267	PURSUER	lure	n/a	n/a	n/a	1
77.214	0.649942379	GONDOLA	lure	n/a	n/a	n/a	1
77.864	0.33332881	YELLER	lure	n/a	n/a	n/a	1
78.197	0.433324593	HEADROOM	lure	n/a	n/a	n/a	1
78.631	0.599994719	TRIPOD	lure	n/a	n/a	n/a	1
79.231	0.349994719	NUTCRACKER	lure	n/a	n/a	n/a	1
79.581	0.683326253	CRESCENT	lure	n/a	n/a	n/a	1
80.264	0.716656843	EDITORSHIP	lure	n/a	n/a	n/a	1
80.981	0.716652982	UNIVERSITY	lure	n/a	n/a	n/a	1
81.697	0.616660647	BAGFUL	lure	n/a	n/a	n/a	1
82.314	2.049970523	DEPOT	long	n/a	n/a	n/a	1
84.364	0.666656301	VANTAGE	lure	n/a	n/a	n/a	1
85.031	0.316667108	SIGMA	lure	n/a	n/a	n/a	1
85.347	0.449992944	NATURE	lure	n/a	n/a	n/a	1
85.797	0.499992779	WHIM	lure	n/a	n/a	n/a	1
86.297	0.733323572	PORTION	lure	n/a	n/a	n/a	1
87.031	0.750443712	JUDICIARY	lure	n/a	n/a	n/a	1
87.781	0.54953878	SCENERY	lure	n/a	n/a	n/a	1
88.33	0.349992375	LOCKET	lure	n/a	n/a	n/a	1
88.68	0.433330977	BUCKSHOT	lure	n/a	n/a	n/a	1
89.114	0.616658599	UNDERSIDE	lure	n/a	n/a	n/a	1
89.73	0.383331222	RIFLEMEN	lure	n/a	n/a	n/a	1
90.114	0.616658068	SOAP	short	n/a	n/a	n/a	1
90.73	0.383322958	BOPPER	lure	n/a	n/a	n/a	1
91.114	0.649994635	MURAL	lure	n/a	n/a	n/a	1
91.764	0.683324915	PALATE	lure	n/a	n/a	n/a	1
92.447	0.466654899	DUNGEON	lure	n/a	n/a	n/a	1
92.914	0.66666445	EQUALITY	lure	n/a	n/a	n/a	1
93.58	0.599986767	MAJORITY	lure	n/a	n/a	n/a	1
94.18	0.516659523	POACHER	lure	n/a	n/a	n/a	1
94.697	0.716659945	CROSSWALK	lure	n/a	n/a	n/a	1
95.414	0.349994003	DEBAUCHERY	lure	n/a	n/a	n/a	1
95.764	0.716657357	DOWNTURN	lure	n/a	n/a	n/a	1
96.48	0.499993643	JEWEL	lure	n/a	n/a	n/a	1
96.98	0.483324629	PLUMAGE	lure	n/a	n/a	n/a	1
97.464	0.333328167	CORNSTARCH	lure	n/a	n/a	n/a	1
97.797	0.400048743	ACME	lure	n/a	n/a	n/a	1
98.197	2.016594661	RAMP	long	n/a	n/a	n/a	1
100.214	0.666654065	TROTH	lure	n/a	n/a	n/a	1
100.88	0.633323447	CLIMATE	lure	n/a	n/a	n/a	1
101.514	0.616657843	PAYMENT	lure	n/a	n/a	n/a	1
102.13	0.733321147	JUNCTURE	lure	n/a	n/a	n/a	1
102.864	0.449996109	MINUTEMAN	lure	n/a	n/a	n/a	1
103.314	0.699987476	CLAN	lure	n/a	n/a	n/a	1
104.014	0.499998595	TINFOIL	lure	n/a	n/a	n/a	1
104.514	0.383325623	MIDDLEMAN	lure	n/a	n/a	n/a	1
104.897	0.616660066	WISECRACK	lure	n/a	n/a	n/a	1
105.514	0.433326705	WINDSCREEN	lure	n/a	n/a	n/a	1
105.947	0.733322825	ARROWHEAD	lure	n/a	n/a	n/a	1
106.68	1.016650468	NECTARINE	fruit	774	2	2	1
107.697	0.766659452	HEADER	lure	n/a	n/a	n/a	1
108.464	0.433325791	MEDALLIST	lure	n/a	n/a	n/a	1
108.897	0.749987934	FOLKLORE	lure	n/a	n/a	n/a	1
109.647	0.399997175	HATBAND	lure	n/a	n/a	n/a	1
110.047	0.716718752	DIESEL	lure	n/a	n/a	n/a	1
110.764	0.333308205	VANDALISM	lure	n/a	n/a	n/a	1
111.097	0.566683937	COLE	lure	n/a	n/a	n/a	1
111.664	0.666594577	CARRYOUT	lure	n/a	n/a	n/a	1
112.33	0.366659232	HERMITAGE	lure	n/a	n/a	n/a	1
112.697	0.549994193	COMMENTARY	lure	n/a	n/a	n/a	1
113.247	0.783321885	CAMERAMEN	lure	n/a	n/a	n/a	1
114.03	0.336217647	GAMBLER	lure	n/a	n/a	n/a	1
114.366	0.630435587	REFLECTION	lure	n/a	n/a	n/a	1
114.997	2.016641701	EARTHQUAKE	long	n/a	n/a	n/a	1
117.013	0.35226561	CARTON	lure	n/a	n/a	n/a	1
117.366	0.51438827	JAVELIN	lure	n/a	n/a	n/a	1
117.88	0.599993117	CHECKUP	lure	n/a	n/a	n/a	1
118.48	0.666655824	RADIANCE	lure	n/a	n/a	n/a	1
119.147	0.433330534	DEVOTION	lure	n/a	n/a	n/a	1
119.58	0.633386876	RESPIRATOR	lure	n/a	n/a	n/a	1
120.213	0.500110344	PLACEMENT	lure	n/a	n/a	n/a	1
120.714	0.399876347	DAIRY	lure	n/a	n/a	n/a	1
121.113	0.533265913	VINYL	lure	n/a	n/a	n/a	1
121.647	0.333324809	FOXGLOVE	lure	n/a	n/a	n/a	1
121.98	0.433328303	JARGON	lure	n/a	n/a	n/a	1
122.413	0.600041845	CASINO	lure	n/a	n/a	n/a	1
123.013	0.399945336	HINDSIGHT	lure	n/a	n/a	n/a	1
123.413	0.616659889	PELLET	short	n/a	n/a	n/a	1
124.03	0.699988999	PEAL	lure	n/a	n/a	n/a	1
124.73	0.383390447	ADVISEMENT	lure	n/a	n/a	n/a	1
125.113	0.68325791	MINER	lure	n/a	n/a	n/a	1
125.797	0.749991772	CATHEDRAL	lure	n/a	n/a	n/a	1
126.547	0.570640544	MATURITY	lure	n/a	n/a	n/a	1
127.117	0.512679339	WARLORD	lure	n/a	n/a	n/a	1
127.63	0.416657341	CLARITY	lure	n/a	n/a	n/a	1
128.047	0.383331526	KIND	lure	n/a	n/a	n/a	1
128.43	0.449992823	POWERHOUSE	lure	n/a	n/a	n/a	1
128.88	0.566661443	RECOMPENSE	lure	n/a	n/a	n/a	1
129.447	0.599988592	STUDENT	lure	n/a	n/a	n/a	1
130.047	0.316663425	BURGLARY	lure	n/a	n/a	n/a	1
130.363	0.783362098	INDENTURE	lure	n/a	n/a	n/a	1
131.147	0.699951377	BARBARISM	lure	n/a	n/a	n/a	1
131.847	0.616660303	MAGAZINE	short	n/a	n/a	n/a	1
132.463	0.383327475	GREENHORN	lure	n/a	n/a	n/a	1
132.847	0.749989408	HORSESHOE	lure	n/a	n/a	n/a	1
133.597	0.433328109	COMMANDANT	lure	n/a	n/a	n/a	1
134.03	0.633325947	CENT	lure	n/a	n/a	n/a	1
134.663	0.416659614	TUB	lure	n/a	n/a	n/a	1
135.08	0.483329242	Un/aEST	lure	n/a	n/a	n/a	1
135.563	0.350097774	DELICACY	lure	n/a	n/a	n/a	1
135.913	0.38322464	POT	lure	n/a	n/a	n/a	1
136.297	0.634803229	PROVENANCE	lure	n/a	n/a	n/a	1
136.931	0.548513216	INCIVILITY	lure	n/a	n/a	n/a	1
137.48	0.316662837	SUPERNOVA	lure	n/a	n/a	n/a	1
137.797	0.749989384	FIREDOG	lure	n/a	n/a	n/a	1
138.546	0.749986206	TORRENT	lure	n/a	n/a	n/a	1
139.296	0.333334503	DONKEY	lure	n/a	n/a	n/a	1
139.63	0.466662289	JUDGESHIP	lure	n/a	n/a	n/a	1
140.096	2.016633649	FLAG	long	n/a	n/a	n/a	1
142.113	0.366664096	MOOSE	lure	n/a	n/a	n/a	1
142.48	0.58332293	UNCONCERN	lure	n/a	n/a	n/a	1
143.063	0.533424526	PEELER	lure	n/a	n/a	n/a	1
143.597	0.683228717	ASSERTION	lure	n/a	n/a	n/a	1
144.28	0.516659234	STALLION	lure	n/a	n/a	n/a	1
144.796	0.700051515	FENDER	lure	n/a	n/a	n/a	1
145.496	0.683265541	SELLOUT	lure	n/a	n/a	n/a	1
146.18	0.73336657	SEPARATISM	lure	n/a	n/a	n/a	1
146.913	0.633279422	MEDIOCRITY	lure	n/a	n/a	n/a	1
147.546	0.450031711	MISCOUNT	lure	n/a	n/a	n/a	1
147.996	0.333292386	TEAROOM	lure	n/a	n/a	n/a	1
148.33	1.049984663	STRAWBERRY	fruit	733	2	2	1
149.38	0.749989868	TORTOISE	lure	n/a	n/a	n/a	1
150.13	0.566655945	GODPARENT	lure	n/a	n/a	n/a	1
150.696	0.649990722	LINEMAN	lure	n/a	n/a	n/a	1
151.346	0.599996219	BANGLE	lure	n/a	n/a	n/a	1
151.946	0.733325751	GURU	lure	n/a	n/a	n/a	1
152.68	0.483321896	AUNT	lure	n/a	n/a	n/a	1
153.163	0.333331945	PEROXIDE	lure	n/a	n/a	n/a	1
153.496	0.483325312	CASSEROLE	lure	n/a	n/a	n/a	1
153.98	0.402231705	BRIDE	lure	n/a	n/a	n/a	1
154.382	0.531090605	CATCHER	lure	n/a	n/a	n/a	1
154.913	0.366661122	LOTTO	lure	n/a	n/a	n/a	1
155.28	0.583324224	CROPPER	lure	n/a	n/a	n/a	1
155.863	0.499994431	SAPPHIRE	lure	n/a	n/a	n/a	1
156.363	0.416661186	MYTHOLOGY	lure	n/a	n/a	n/a	1
156.78	2.016637269	CORK	long	n/a	n/a	n/a	1
158.796	0.733327203	TEXT	lure	n/a	n/a	n/a	1
159.53	0.333328323	CHAPERONE	lure	n/a	n/a	n/a	1
159.863	0.583327638	WATCHMEN	lure	n/a	n/a	n/a	1
160.446	0.749983985	INERTIA	lure	n/a	n/a	n/a	1
161.196	0.654143488	BLOWUP	lure	n/a	n/a	n/a	1
161.85	0.479178334	ECLIPSE	lure	n/a	n/a	n/a	1
162.33	0.616660483	INFANCY	lure	n/a	n/a	n/a	1
162.946	0.683320851	CANOPY	lure	n/a	n/a	n/a	1
163.629	0.349997674	PRINCE	lure	n/a	n/a	n/a	1
163.979	0.733323134	TOMBOY	lure	n/a	n/a	n/a	1
164.713	0.366662345	WRESTLER	lure	n/a	n/a	n/a	1
165.079	1.016651015	MANGO	fruit	839	2	2	1
166.096	0.549988972	ORATION	lure	n/a	n/a	n/a	1
166.646	0.533331469	DUGOUT	lure	n/a	n/a	n/a	1
167.179	0.386621423	FOYER	lure	n/a	n/a	n/a	1
167.566	0.563360874	NOVEL	lure	n/a	n/a	n/a	1
168.129	0.4000005	GRAVY	lure	n/a	n/a	n/a	1
168.529	0.349992774	DOZEN	lure	n/a	n/a	n/a	1
168.879	0.616660317	PAYMASTER	lure	n/a	n/a	n/a	1
169.496	0.683321859	SITUATION	lure	n/a	n/a	n/a	1
170.179	0.386154093	PROPRIETY	lure	n/a	n/a	n/a	1
170.566	0.597165363	TURNABOUT	lure	n/a	n/a	n/a	1
171.163	0.649991647	CLAUSE	lure	n/a	n/a	n/a	1
171.813	0.683324787	HOLDER	lure	n/a	n/a	n/a	1
172.496	0.666654366	SLAPSTICK	lure	n/a	n/a	n/a	1
173.163	0.616663918	FLEET	short	n/a	n/a	n/a	1
173.779	0.633324034	OUTBACK	lure	n/a	n/a	n/a	1
174.413	0.483322491	SILL	lure	n/a	n/a	n/a	1
174.896	0.43333042	OILFIELD	lure	n/a	n/a	n/a	1
175.329	0.583324017	PARKHOUSE	lure	n/a	n/a	n/a	1
175.913	0.349997949	WOOD	lure	n/a	n/a	n/a	1
176.263	0.716656786	GETAWAY	lure	n/a	n/a	n/a	1
176.979	0.516659081	TROUSER	lure	n/a	n/a	n/a	1
177.496	0.499990335	TRACER	lure	n/a	n/a	n/a	1
177.996	0.683328436	COASTER	lure	n/a	n/a	n/a	1
178.679	0.599995407	MEDICINE	lure	n/a	n/a	n/a	1
179.279	0.519493871	GUERILLA	lure	n/a	n/a	n/a	1
179.799	0.713818921	VEAL	lure	n/a	n/a	n/a	1
180.513	0.366659737	PHRASEBOOK	lure	n/a	n/a	n/a	1
180.879	0.733324303	TUNDRA	lure	n/a	n/a	n/a	1
181.613	2.016641045	COAL	long	n/a	n/a	n/a	1
183.629	0.566660456	PROPAGANDA	lure	n/a	n/a	n/a	1
184.196	0.349994034	INDIGO	lure	n/a	n/a	n/a	1
184.546	0.416660026	VILLAIN	lure	n/a	n/a	n/a	1
184.963	0.599992473	CHORE	lure	n/a	n/a	n/a	1
185.563	0.649990669	PAIL	lure	n/a	n/a	n/a	1
186.213	0.417974699	OVERHANG	lure	n/a	n/a	n/a	1
186.63	0.498678166	TROLLEY	lure	n/a	n/a	n/a	1
187.129	0.433328912	TURMOIL	lure	n/a	n/a	n/a	1
187.563	0.366662184	WARMTH	lure	n/a	n/a	n/a	1
187.929	0.466662817	KIDNEY	lure	n/a	n/a	n/a	1
188.396	0.616658297	MUSICIAN	lure	n/a	n/a	n/a	1
189.012	0.699988645	TIGHTWAD	lure	n/a	n/a	n/a	1
189.712	0.616658539	SUDS	short	n/a	n/a	n/a	1
190.329	0.516655749	CELERY	lure	n/a	n/a	n/a	1
190.846	0.49999303	GRAD	lure	n/a	n/a	n/a	1
191.346	0.649998453	DRAUGHT	lure	n/a	n/a	n/a	1
191.996	0.549990814	INSTEP	lure	n/a	n/a	n/a	1
192.546	0.399989184	CRUST	lure	n/a	n/a	n/a	1
192.946	0.416665795	ELOQUENCE	lure	n/a	n/a	n/a	1
193.362	0.533324828	SUNDOWN	lure	n/a	n/a	n/a	1
193.896	0.733326462	FROG	lure	n/a	n/a	n/a	1
194.629	0.333326128	CAMERA	lure	n/a	n/a	n/a	1
194.962	0.749987259	SPECIALIST	lure	n/a	n/a	n/a	1
195.712	0.516664532	COVERAGE	lure	n/a	n/a	n/a	1
196.229	0.549990604	SEIZURE	lure	n/a	n/a	n/a	1
196.779	0.699990568	MOOD	lure	n/a	n/a	n/a	1
197.479	0.766656504	BODYWORK	lure	n/a	n/a	n/a	1
198.246	1.018391007	CRANBERRY	fruit	769	2	2	1
199.264	0.481588388	COHORT	lure	n/a	n/a	n/a	1
199.746	0.449992278	HAIRNET	lure	n/a	n/a	n/a	1
200.196	0.3499971	ECONOMIST	lure	n/a	n/a	n/a	1
200.546	0.566658268	SNATCHER	lure	n/a	n/a	n/a	1
201.112	0.533327221	LEVITY	lure	n/a	n/a	n/a	1
201.646	0.499995392	TURTLEDOVE	lure	n/a	n/a	n/a	1
202.146	0.649985815	COLLATERAL	lure	n/a	n/a	n/a	1
202.796	0.599992739	HUNTER	lure	n/a	n/a	n/a	1
203.396	0.666659573	SUBTYPE	lure	n/a	n/a	n/a	1
204.062	0.649990998	EXUBERANCE	lure	n/a	n/a	n/a	1
204.712	0.402485021	FEET	lure	n/a	n/a	n/a	1
205.115	0.730834254	REPRESSION	lure	n/a	n/a	n/a	1
205.846	0.633320432	HEDGEHOG	lure	n/a	n/a	n/a	1
206.479	1.016660152	APPLE	fruit	855	2	2	1
207.496	0.716655232	MYSTICISM	lure	n/a	n/a	n/a	1
208.212	0.71665736	LEGACY	lure	n/a	n/a	n/a	1
208.929	0.58332432	CONFERENCE	lure	n/a	n/a	n/a	1
209.512	0.34999436	DEFINITION	lure	n/a	n/a	n/a	1
209.862	0.58332799	BRUNT	lure	n/a	n/a	n/a	1
210.446	0.483323362	CRACKDOWN	lure	n/a	n/a	n/a	1
210.929	0.633330487	SUNLIGHT	lure	n/a	n/a	n/a	1
211.562	0.3666601	LAWSUIT	lure	n/a	n/a	n/a	1
211.929	0.716655813	PREDICTION	lure	n/a	n/a	n/a	1
212.645	0.749986364	RIBOFLAVIN	lure	n/a	n/a	n/a	1
213.395	0.366665651	TEARJERKER	lure	n/a	n/a	n/a	1
213.762	0.366660721	ACTIVITY	lure	n/a	n/a	n/a	1
214.129	0.599993748	INKLING	lure	n/a	n/a	n/a	1
214.729	0.616659108	LAUNDRY	short	n/a	n/a	n/a	1
215.345	0.533325022	PENNANT	lure	n/a	n/a	n/a	1
215.879	0.633324176	ANNOTATION	lure	n/a	n/a	n/a	1
216.512	0.333328732	HEADHUNTER	lure	n/a	n/a	n/a	1
216.845	0.316730015	ISLANDER	lure	n/a	n/a	n/a	1
217.162	0.449926676	OPTIMALITY	lure	n/a	n/a	n/a	1
217.612	0.516695093	DIVERGENCE	lure	n/a	n/a	n/a	1
218.129	0.449958006	PIGMENT	lure	n/a	n/a	n/a	1
218.579	0.599992427	ANARCHISM	lure	n/a	n/a	n/a	1
219.179	0.566658737	SPEAKER	lure	n/a	n/a	n/a	1
219.745	0.483323795	BUYER	lure	n/a	n/a	n/a	1
220.229	0.533329322	LITHOGRAPH	lure	n/a	n/a	n/a	1
220.762	0.349995728	MUMMY	lure	n/a	n/a	n/a	1
221.112	0.583326026	STUPOR	lure	n/a	n/a	n/a	1
221.695	0.400049933	WHARF	lure	n/a	n/a	n/a	1
222.095	0.366605523	BANKRUPTCY	lure	n/a	n/a	n/a	1
222.462	0.749988893	INFIDELITY	lure	n/a	n/a	n/a	1
223.212	0.550090545	VARSITY	lure	n/a	n/a	n/a	1
223.762	0.683231119	MISUSE	lure	n/a	n/a	n/a	1
224.445	0.66665403	VERB	lure	n/a	n/a	n/a	1
225.112	0.600043229	WINTERTIME	lure	n/a	n/a	n/a	1
225.712	0.599940403	EARDRUM	lure	n/a	n/a	n/a	1
226.312	0.433324581	DUET	lure	n/a	n/a	n/a	1
226.745	n/a	TURNTABLE	lure	n/a	n/a	n/a	1
238.012	0.733322856	OVERTONE	lure	n/a	n/a	n/a	1
238.745	0.699991432	ENVOY	lure	n/a	n/a	n/a	1
239.445	0.516660076	VOWEL	lure	n/a	n/a	n/a	1
239.962	0.683323982	SYSTEM	lure	n/a	n/a	n/a	1
240.645	0.699990804	COUNTY	lure	n/a	n/a	n/a	1
241.345	0.483325558	VENTILATOR	lure	n/a	n/a	n/a	1
241.828	1.016653285	CRANBERRY	fruit	n/a	n/a	2	0
242.845	0.499995408	SPEEDBOAT	lure	9	2	n/a	0
243.345	0.733321577	TOPSIDE	lure	n/a	n/a	n/a	1
244.078	0.716658147	ODDITY	lure	n/a	n/a	n/a	1
244.795	0.366660944	SULTAN	lure	n/a	n/a	n/a	1
245.162	0.716657653	MODIFIER	lure	n/a	n/a	n/a	1
245.878	0.683323959	OUTSET	lure	n/a	n/a	n/a	1
246.562	0.316661617	HEADGEAR	lure	n/a	n/a	n/a	1
246.878	0.549993231	DIVISION	lure	n/a	n/a	n/a	1
247.428	0.333366318	RENOWN	lure	n/a	n/a	n/a	1
247.762	0.73328733	FOOTWORK	lure	n/a	n/a	n/a	1
248.495	0.487888736	PESSIMIST	lure	n/a	n/a	n/a	1
248.983	0.712094109	KIDDY	lure	n/a	n/a	n/a	1
249.695	0.399993482	RUG	lure	n/a	n/a	n/a	1
250.095	2.016640977	COAL	long	n/a	n/a	n/a	1
252.112	0.449990563	CORROSION	lure	n/a	n/a	n/a	1
252.562	0.650052149	BULLFROG	lure	n/a	n/a	n/a	1
253.212	0.333270569	OCEAN	lure	n/a	n/a	n/a	1
253.545	0.599991668	CENTRALITY	lure	n/a	n/a	n/a	1
254.145	0.39999567	STORK	lure	n/a	n/a	n/a	1
254.545	0.470644245	GALLERY	lure	n/a	n/a	n/a	1
255.016	0.646006118	PATROLMEN	lure	n/a	n/a	n/a	1
255.662	0.466660756	HABIT	lure	n/a	n/a	n/a	1
256.128	0.383328511	UMPIRE	lure	n/a	n/a	n/a	1
256.512	0.633324602	HUBBY	lure	n/a	n/a	n/a	1
257.145	0.34999277	SOMEONE	lure	n/a	n/a	n/a	1
257.495	0.437017756	LIQUIDITY	lure	n/a	n/a	n/a	1
257.932	0.71296627	TEMPEST	lure	n/a	n/a	n/a	1
258.645	2.016642661	GIFT	long	n/a	n/a	n/a	1
260.662	0.416662374	OINTMENT	lure	n/a	n/a	n/a	1
261.078	0.38332488	SPECTRA	lure	n/a	n/a	n/a	1
261.462	0.68332705	SLANG	lure	n/a	n/a	n/a	1
262.145	0.51665798	PONYTAIL	lure	n/a	n/a	n/a	1
262.661	0.483328469	FARMSTEAD	lure	n/a	n/a	n/a	1
263.145	0.766656038	CONDOLENCE	lure	n/a	n/a	n/a	1
263.911	0.333326755	STONEWORK	lure	n/a	n/a	n/a	1
264.245	0.683325384	REPORTER	lure	n/a	n/a	n/a	1
264.928	0.733324338	RETROSPECT	lure	n/a	n/a	n/a	1
265.661	0.416659	SUn/aAY	lure	n/a	n/a	n/a	1
266.078	0.449996293	VIOLINIST	lure	n/a	n/a	n/a	1
266.528	0.39999281	STEPSON	lure	n/a	n/a	n/a	1
266.928	0.616660651	CHART	short	n/a	n/a	n/a	1
267.545	0.616657119	STEAMER	lure	n/a	n/a	n/a	1
268.161	0.583325811	HANGER	lure	n/a	n/a	n/a	1
268.745	0.699987002	PANCAKE	lure	n/a	n/a	n/a	1
269.445	0.51666726	RINGLEADER	lure	n/a	n/a	n/a	1
269.961	0.549990362	KITE	lure	n/a	n/a	n/a	1
270.511	0.749985324	DISABILITY	lure	n/a	n/a	n/a	1
271.261	0.566662546	CHASER	lure	n/a	n/a	n/a	1
271.828	0.683322429	SNACK	lure	n/a	n/a	n/a	1
272.511	0.666656327	BRUTE	lure	n/a	n/a	n/a	1
273.178	0.486378765	FOOTPATH	lure	n/a	n/a	n/a	1
273.664	0.54694624	OPTIMISM	lure	n/a	n/a	n/a	1
274.211	0.349992975	MISSTEP	lure	n/a	n/a	n/a	1
274.561	0.699987506	ELATION	lure	n/a	n/a	n/a	1
275.261	2.016642984	CORK	long	n/a	n/a	n/a	1
277.278	0.733319815	ZOOLOGIST	lure	n/a	n/a	n/a	1
278.011	0.416664186	COD	lure	n/a	n/a	n/a	1
278.428	0.449992214	FANTASY	lure	n/a	n/a	n/a	1
278.878	0.449995048	REFERENCE	lure	n/a	n/a	n/a	1
279.328	0.416662022	BINDER	lure	n/a	n/a	n/a	1
279.745	0.583322628	SEGMENT	lure	n/a	n/a	n/a	1
280.328	0.69999621	HAIRPIN	lure	n/a	n/a	n/a	1
281.028	0.533323795	INDOLENCE	lure	n/a	n/a	n/a	1
281.561	0.383327348	COMMUNISM	lure	n/a	n/a	n/a	1
281.945	0.433325335	CARNAGE	lure	n/a	n/a	n/a	1
282.378	0.583324872	BARRIER	lure	n/a	n/a	n/a	1
282.961	0.435213983	MERCER	lure	n/a	n/a	n/a	1
283.396	0.614775295	MAGAZINE	short	n/a	n/a	n/a	1
284.011	0.51665951	SECT	lure	n/a	n/a	n/a	1
284.528	0.366662697	HANDBAG	lure	n/a	n/a	n/a	1
284.895	0.549991432	PROVISION	lure	n/a	n/a	n/a	1
285.445	0.716654847	POMPOM	lure	n/a	n/a	n/a	1
286.161	0.616658791	COMPLIMENT	lure	n/a	n/a	n/a	1
286.778	0.349996052	BOUNCER	lure	n/a	n/a	n/a	1
287.128	0.416661402	OUTFITTER	lure	n/a	n/a	n/a	1
287.544	0.533328248	POTATO	lure	n/a	n/a	n/a	1
288.078	0.549993932	OPENER	lure	n/a	n/a	n/a	1
288.628	0.733319206	HOTBED	lure	n/a	n/a	n/a	1
289.361	0.483332168	BATTALION	lure	n/a	n/a	n/a	1
289.844	0.583320434	DRAGNET	lure	n/a	n/a	n/a	1
290.428	0.416659832	PROPULSION	lure	n/a	n/a	n/a	1
290.844	0.383328383	LINEAGE	lure	n/a	n/a	n/a	1
291.228	0.649995047	ENGINE	short	n/a	n/a	n/a	1
291.878	0.616654831	TIC	lure	n/a	n/a	n/a	1
292.494	0.549994663	TAILSPIN	lure	n/a	n/a	n/a	1
293.044	0.466664668	GRANDAD	lure	n/a	n/a	n/a	1
293.511	0.716653844	WHEELCHAIR	lure	n/a	n/a	n/a	1
294.228	0.416659364	TRANSDUCER	lure	n/a	n/a	n/a	1
294.644	0.666663089	GUNSLINGER	lure	n/a	n/a	n/a	1
295.311	0.349993656	MUTT	lure	n/a	n/a	n/a	1
295.661	0.583320122	LOOPHOLE	lure	n/a	n/a	n/a	1
296.244	0.316665273	DICE	lure	n/a	n/a	n/a	1
296.561	0.499994774	CUBIST	lure	n/a	n/a	n/a	1
297.061	0.649989039	COMBAT	lure	n/a	n/a	n/a	1
297.711	0.383327453	HORSEMAN	lure	n/a	n/a	n/a	1
298.094	0.416660236	ADMIRAL	lure	n/a	n/a	n/a	1
298.511	0.616659579	FAMINE	lure	n/a	n/a	n/a	1
299.128	0.503025767	RETAIL	lure	n/a	n/a	n/a	1
299.631	0.613623587	PELLET	short	n/a	n/a	n/a	1
300.244	0.416665403	OMISSION	lure	n/a	n/a	n/a	1
300.661	0.56665716	METEORITE	lure	n/a	n/a	n/a	1
301.228	0.666657926	HYENA	lure	n/a	n/a	n/a	1
301.894	0.48338467	ANIMALISM	lure	n/a	n/a	n/a	1
302.378	0.483323528	CONFUSION	lure	n/a	n/a	n/a	1
302.861	0.499938919	CLIENTELE	lure	n/a	n/a	n/a	1
303.361	0.583328457	WRITER	lure	n/a	n/a	n/a	1
303.944	0.383325084	WINDSHIELD	lure	n/a	n/a	n/a	1
304.328	0.516702853	BOARDER	lure	n/a	n/a	n/a	1
304.844	0.433287228	SUCKER	lure	n/a	n/a	n/a	1
305.278	0.31666461	SIDELINE	lure	n/a	n/a	n/a	1
305.594	0.399990723	IDEALIST	lure	n/a	n/a	n/a	1
305.994	0.59999202	STEALTH	lure	n/a	n/a	n/a	1
306.594	0.466662382	GUMDROP	lure	n/a	n/a	n/a	1
307.061	0.499992452	HAREM	lure	n/a	n/a	n/a	1
307.561	0.549993906	OBSESSION	lure	n/a	n/a	n/a	1
308.111	0.616660351	SUDS	short	n/a	n/a	n/a	1
308.728	0.599985564	COMMOTION	lure	n/a	n/a	n/a	1
309.328	0.383327962	VOYAGER	lure	n/a	n/a	n/a	1
309.711	0.616659651	WAREHOUSE	lure	n/a	n/a	n/a	1
310.328	0.733322468	TWEEZER	lure	n/a	n/a	n/a	1
311.061	0.46666256	HYPOCRISY	lure	n/a	n/a	n/a	1
311.528	0.699992307	SUNSHINE	lure	n/a	n/a	n/a	1
312.227	0.499992861	TURNOUT	lure	n/a	n/a	n/a	1
312.727	0.333325397	SALESWOMAN	lure	n/a	n/a	n/a	1
313.061	0.352378815	TECH	lure	n/a	n/a	n/a	1
313.413	0.480946654	FACILITY	lure	n/a	n/a	n/a	1
313.894	0.499994089	BELLFLOWER	lure	n/a	n/a	n/a	1
314.394	0.733394603	ESPIONAGE	lure	n/a	n/a	n/a	1
315.128	0.749915613	GEOLOGIST	lure	n/a	n/a	n/a	1
315.877	0.483330596	HEARTACHE	lure	n/a	n/a	n/a	1
316.361	2.016640183	FLAG	long	n/a	n/a	n/a	1
318.377	0.649987616	BACKER	lure	n/a	n/a	n/a	1
319.027	0.750387001	BOOKER	lure	n/a	n/a	n/a	1
319.778	0.316265739	MORROW	lure	n/a	n/a	n/a	1
320.094	0.666657537	SOLICITUDE	lure	n/a	n/a	n/a	1
320.761	0.466665819	REDEMPTION	lure	n/a	n/a	n/a	1
321.227	0.483377857	HIP	lure	n/a	n/a	n/a	1
321.711	0.416605088	RIVALRY	lure	n/a	n/a	n/a	1
322.127	0.350043997	DUPLEX	lure	n/a	n/a	n/a	1
322.477	0.533335428	JUG	lure	n/a	n/a	n/a	1
323.011	0.40210142	CREATURE	lure	n/a	n/a	n/a	1
323.413	0.697829561	AIRMEN	lure	n/a	n/a	n/a	1
324.111	0.700052603	RIM	lure	n/a	n/a	n/a	1
324.811	0.616591826	COAT	short	n/a	n/a	n/a	1
325.427	0.633328179	PROBATION	lure	n/a	n/a	n/a	1
326.061	0.41747868	BOBTAIL	lure	n/a	n/a	n/a	1
326.478	0.382567027	BOOKMARK	lure	n/a	n/a	n/a	1
326.861	0.716599598	DEPOSITION	lure	n/a	n/a	n/a	1
327.577	0.616660764	ANTELOPE	lure	n/a	n/a	n/a	1
328.194	0.516654454	MONOXIDE	lure	n/a	n/a	n/a	1
328.711	0.718855871	EXTINCTION	lure	n/a	n/a	n/a	1
329.429	0.68112889	SALON	lure	n/a	n/a	n/a	1
330.111	0.433328527	FELICITY	lure	n/a	n/a	n/a	1
330.544	0.733320674	JESTER	lure	n/a	n/a	n/a	1
331.277	0.600048923	OPIATE	lure	n/a	n/a	n/a	1
331.877	0.433270319	ATTENDANT	lure	n/a	n/a	n/a	1
332.311	0.666667688	PAUPER	lure	n/a	n/a	n/a	1
332.977	0.449983362	PROPHET	lure	n/a	n/a	n/a	1
333.427	1.016657568	PLUM	fruit	n/a	n/a	2	0
334.444	0.666707946	PROSECUTOR	lure	354	2	n/a	0
335.111	0.435336381	WAY	lure	n/a	n/a	n/a	1
335.546	0.731260202	REVOCATION	lure	n/a	n/a	n/a	1
336.277	0.683327777	HAIRPIECE	lure	n/a	n/a	n/a	1
336.961	0.399990598	BROWNIE	lure	n/a	n/a	n/a	1
337.36	0.516658553	STEPCHILD	lure	n/a	n/a	n/a	1
337.877	0.349997364	FIANCEE	lure	n/a	n/a	n/a	1
338.227	0.533327415	NATURISM	lure	n/a	n/a	n/a	1
338.76	0.716656212	SALAD	lure	n/a	n/a	n/a	1
339.477	0.333332685	ANTIPATHY	lure	n/a	n/a	n/a	1
339.81	0.366660142	BUZZARD	lure	n/a	n/a	n/a	1
340.177	0.333326618	FILLER	lure	n/a	n/a	n/a	1
340.51	0.616657974	HILARITY	lure	n/a	n/a	n/a	1
341.127	0.666661264	TONGUE	lure	n/a	n/a	n/a	1
341.794	2.016637447	RAMP	long	n/a	n/a	n/a	1
343.81	0.3166632	DADDY	lure	n/a	n/a	n/a	1
344.127	0.53332478	BOWEL	lure	n/a	n/a	n/a	1
344.66	0.466658527	ANECDOTE	lure	n/a	n/a	n/a	1
345.127	0.583325587	GUM	lure	n/a	n/a	n/a	1
345.71	0.699990806	DEFIANCE	lure	n/a	n/a	n/a	1
346.41	0.383328158	KNOCKOUT	lure	n/a	n/a	n/a	1
346.794	0.383331897	RECRUITER	lure	n/a	n/a	n/a	1
347.177	0.454004727	GOLF	lure	n/a	n/a	n/a	1
347.631	0.6793141	BATTERY	lure	n/a	n/a	n/a	1
348.31	0.38332775	VISE	lure	n/a	n/a	n/a	1
348.694	0.383327766	VEHICLE	lure	n/a	n/a	n/a	1
349.077	0.74998919	ANALYST	lure	n/a	n/a	n/a	1
349.827	0.566660234	MAZE	lure	n/a	n/a	n/a	1
350.394	1.016746461	APPLE	fruit	725	2	2	1
351.41	0.399898545	ARMOR	lure	n/a	n/a	n/a	1
351.81	0.699993533	FEUDALISM	lure	n/a	n/a	n/a	1
352.51	0.649989197	PIZZERIA	lure	n/a	n/a	n/a	1
353.16	0.649991049	VISOR	lure	n/a	n/a	n/a	1
353.81	0.416663181	LISTENER	lure	n/a	n/a	n/a	1
354.227	0.316662886	GRAMMAR	lure	n/a	n/a	n/a	1
354.544	0.719705107	SCHISM	lure	n/a	n/a	n/a	1
355.263	0.363614321	MOONSTONE	lure	n/a	n/a	n/a	1
355.627	0.466660125	VIGILANTE	lure	n/a	n/a	n/a	1
356.094	0.383332235	CORDIALITY	lure	n/a	n/a	n/a	1
356.477	0.350012797	GAZER	lure	n/a	n/a	n/a	1
356.827	0.449970782	FROCK	lure	n/a	n/a	n/a	1
357.277	0.349998075	PASTIME	lure	n/a	n/a	n/a	1
357.627	0.666659803	COWLICK	lure	n/a	n/a	n/a	1
358.294	0.449992865	NIGHTIE	lure	n/a	n/a	n/a	1
358.744	0.616655413	FLEET	short	n/a	n/a	n/a	1
359.36	0.666661262	NORTHERNER	lure	n/a	n/a	n/a	1
360.027	0.733316643	UNICORN	lure	n/a	n/a	n/a	1
360.76	0.383330258	OUTBURST	lure	n/a	n/a	n/a	1
361.144	0.749990765	SALTER	lure	n/a	n/a	n/a	1
361.894	0.616660345	GUILT	lure	n/a	n/a	n/a	1
362.51	0.5666589	PANEL	lure	n/a	n/a	n/a	1
363.077	0.583324957	CHRONOLOGY	lure	n/a	n/a	n/a	1
363.66	0.599989256	PACESETTER	lure	n/a	n/a	n/a	1
364.26	0.649994936	SHORTAGE	lure	n/a	n/a	n/a	1
364.91	0.383323683	LAWN	lure	n/a	n/a	n/a	1
365.293	0.733323686	DECORATION	lure	n/a	n/a	n/a	1
366.027	0.533384458	STUMPER	lure	n/a	n/a	n/a	1
366.56	0.416605237	ENCHANTER	lure	n/a	n/a	n/a	1
366.977	2.016639944	PARADE	long	n/a	n/a	n/a	1
368.993	0.599991921	CAPRICE	lure	n/a	n/a	n/a	1
369.593	0.683324812	WOMANIZER	lure	n/a	n/a	n/a	1
370.277	0.449995646	TEMPTER	lure	n/a	n/a	n/a	1
370.727	0.616658793	ADAPTER	lure	n/a	n/a	n/a	1
371.343	0.466654782	GODSON	lure	n/a	n/a	n/a	1
371.81	0.569010542	FRAILTY	lure	n/a	n/a	n/a	1
372.379	0.614308154	LARD	lure	n/a	n/a	n/a	1
372.993	0.499998762	UNDERTONE	lure	n/a	n/a	n/a	1
373.493	0.549989541	JUDGMENT	lure	n/a	n/a	n/a	1
374.043	0.599990264	GUNPLAY	lure	n/a	n/a	n/a	1
374.643	0.316717216	SKIT	lure	n/a	n/a	n/a	1
374.96	2.016586994	PUTTY	long	n/a	n/a	n/a	1
376.977	0.449992815	REPEATER	lure	n/a	n/a	n/a	1
377.427	0.599995467	INTERPLAY	lure	n/a	n/a	n/a	1
378.027	0.566655893	POODLE	lure	n/a	n/a	n/a	1
378.593	0.61665849	IDEOLOGY	lure	n/a	n/a	n/a	1
379.21	0.583328691	BIB	lure	n/a	n/a	n/a	1
379.793	0.650042877	LIMITATION	lure	n/a	n/a	n/a	1
380.443	0.733272285	ENCAMPMENT	lure	n/a	n/a	n/a	1
381.177	0.68337212	OVERPRINT	lure	n/a	n/a	n/a	1
381.86	0.683275714	SOLITAIRE	lure	n/a	n/a	n/a	1
382.543	0.686092067	BACKGAMMON	lure	n/a	n/a	n/a	1
383.229	0.630550764	ANEMIA	lure	n/a	n/a	n/a	1
383.86	2.016645467	EARTHQUAKE	long	n/a	n/a	n/a	1
385.877	0.599990633	EVOLUTION	lure	n/a	n/a	n/a	1
386.477	0.669726376	WHOOP	lure	n/a	n/a	n/a	1
387.146	0.446925308	CHANTER	lure	n/a	n/a	n/a	1
387.593	0.416660314	PRANK	lure	n/a	n/a	n/a	1
388.01	0.71665886	OUTSIDER	lure	n/a	n/a	n/a	1
388.726	0.416656866	DEMANDER	lure	n/a	n/a	n/a	1
389.143	0.616657297	THEME	lure	n/a	n/a	n/a	1
389.76	0.699992063	HAIRLINE	lure	n/a	n/a	n/a	1
390.46	0.399997564	NUTRIENT	lure	n/a	n/a	n/a	1
390.86	0.466662122	PRECEDENT	lure	n/a	n/a	n/a	1
391.326	0.383325224	BONFIRE	lure	n/a	n/a	n/a	1
391.71	1.016650826	PEACH	fruit	729	2	2	1
392.726	0.649994628	HOROSCOPE	lure	n/a	n/a	n/a	1
393.376	0.69998985	NECKWEAR	lure	n/a	n/a	n/a	1
394.076	0.616660594	MUSCLEMEN	lure	n/a	n/a	n/a	1
394.693	0.649989647	POLO	lure	n/a	n/a	n/a	1
395.343	0.583324247	DEBT	lure	n/a	n/a	n/a	1
395.926	0.699989776	FREEMAN	lure	n/a	n/a	n/a	1
396.626	0.485457749	ORACLE	lure	n/a	n/a	n/a	1
397.112	0.714523416	OVATION	lure	n/a	n/a	n/a	1
397.826	0.766660636	ASPECT	lure	n/a	n/a	n/a	1
398.593	0.449990502	RESENTMENT	lure	n/a	n/a	n/a	1
399.043	0.649992604	SHILLING	lure	n/a	n/a	n/a	1
399.693	0.666658689	TAXONOMY	lure	n/a	n/a	n/a	1
400.36	1.016655709	NECTARINE	fruit	807	2	2	1
401.376	0.483325142	UNCLE	lure	n/a	n/a	n/a	1
401.86	0.616659015	BONANZA	lure	n/a	n/a	n/a	1
402.476	0.483323576	LITIGATION	lure	n/a	n/a	n/a	1
402.96	0.353883823	TRAITOR	lure	n/a	n/a	n/a	1
403.313	0.396107177	INDICATION	lure	n/a	n/a	n/a	1
403.71	0.59999443	SKYLARK	lure	n/a	n/a	n/a	1
404.31	0.499991671	POSITIVISM	lure	n/a	n/a	n/a	1
404.81	0.666656668	EPIGRAM	lure	n/a	n/a	n/a	1
405.476	0.566662188	SCHOOLMATE	lure	n/a	n/a	n/a	1
406.043	0.466657208	BEAKER	lure	n/a	n/a	n/a	1
406.51	0.599991741	FILTRATION	lure	n/a	n/a	n/a	1
407.11	0.649994321	ABSOLUTISM	lure	n/a	n/a	n/a	1
407.76	0.49999161	ALOE	lure	n/a	n/a	n/a	1
408.26	0.383327132	LOCOMOTION	lure	n/a	n/a	n/a	1
408.643	2.016645758	PUMP	long	n/a	n/a	n/a	1
410.66	0.649988545	SKILLET	lure	n/a	n/a	n/a	1
411.31	0.666657411	PHANTOM	lure	n/a	n/a	n/a	1
411.976	0.499995325	HELLCAT	lure	n/a	n/a	n/a	1
412.476	0.316662601	REPTILE	lure	n/a	n/a	n/a	1
412.793	0.583325031	DIVINITY	lure	n/a	n/a	n/a	1
413.376	0.651411511	LIGHTNING	lure	n/a	n/a	n/a	1
414.028	0.515235267	ROPEWALK	lure	n/a	n/a	n/a	1
414.543	0.416659527	AMNESTY	lure	n/a	n/a	n/a	1
414.959	0.599995277	TWISTER	lure	n/a	n/a	n/a	1
415.559	0.649988126	EXCUSE	lure	n/a	n/a	n/a	1
416.209	0.500050348	TURNPIKE	lure	n/a	n/a	n/a	1
416.709	0.616604864	JAIL	short	n/a	n/a	n/a	1
417.326	0.349992736	HANDBILL	lure	n/a	n/a	n/a	1
417.676	0.34999549	ABSORBENCY	lure	n/a	n/a	n/a	1
418.026	0.549995457	SULFIDE	lure	n/a	n/a	n/a	1
418.576	0.43332347	BENEFACTOR	lure	n/a	n/a	n/a	1
419.009	0.566660917	PROPENSITY	lure	n/a	n/a	n/a	1
419.576	0.566661347	MAINSTAY	lure	n/a	n/a	n/a	1
420.143	0.383326536	ANYONE	lure	n/a	n/a	n/a	1
420.526	0.399994261	SYRUP	lure	n/a	n/a	n/a	1
420.926	0.566661203	TOURNAMENT	lure	n/a	n/a	n/a	1
421.493	0.699987148	SURFER	lure	n/a	n/a	n/a	1
422.193	0.400000401	ABBOT	lure	n/a	n/a	n/a	1
422.593	0.349992683	LIFE	lure	n/a	n/a	n/a	1
422.943	0.449992791	KNAPSACK	lure	n/a	n/a	n/a	1
423.393	0.566658624	MISSY	lure	n/a	n/a	n/a	1
423.959	0.483330193	QUEEN	lure	n/a	n/a	n/a	1
424.443	0.333327424	THERAPIST	lure	n/a	n/a	n/a	1
424.776	0.616655015	LAUNDRY	short	n/a	n/a	n/a	1
425.393	0.716660042	GRANDCHILD	lure	n/a	n/a	n/a	1
426.109	0.633324986	STANDPOINT	lure	n/a	n/a	n/a	1
426.743	0.333370007	CONTEST	lure	n/a	n/a	n/a	1
427.076	0.666615026	WORKROOM	lure	n/a	n/a	n/a	1
427.743	0.533323992	METAPHYSIC	lure	n/a	n/a	n/a	1
428.276	0.33332978	WEEKEND	lure	n/a	n/a	n/a	1
428.609	0.733324556	EQUINOX	lure	n/a	n/a	n/a	1
429.343	0.486881778	SISTER	lure	n/a	n/a	n/a	1
429.829	0.763100605	COMPLEXITY	lure	n/a	n/a	n/a	1
430.593	0.666661841	BONEHEAD	lure	n/a	n/a	n/a	1
431.259	0.499992176	BROKERAGE	lure	n/a	n/a	n/a	1
431.759	0.383328072	BETRAYAL	lure	n/a	n/a	n/a	1
432.143	0.554254845	TIGER	lure	n/a	n/a	n/a	1
432.697	0.462395377	OKRA	lure	n/a	n/a	n/a	1
433.159	1.016653139	GRAPEFRUIT	fruit	719	2	2	1
434.176	0.58332564	SONGBOOK	lure	n/a	n/a	n/a	1
434.759	0.416662077	DEADWOOD	lure	n/a	n/a	n/a	1
435.176	0.316661364	MATURATION	lure	n/a	n/a	n/a	1
435.493	0.433329854	CORNFLAKE	lure	n/a	n/a	n/a	1
435.926	0.566661219	COMPETITOR	lure	n/a	n/a	n/a	1
436.493	0.59998809	ARISTOCRAT	lure	n/a	n/a	n/a	1
437.092	0.466661495	INFO	lure	n/a	n/a	n/a	1
437.559	0.616656453	WEDLOCK	lure	n/a	n/a	n/a	1
438.176	0.68332825	GENETICIST	lure	n/a	n/a	n/a	1
438.859	0.749990346	AMPLIFIER	lure	n/a	n/a	n/a	1
439.609	0.399993581	PROTESTER	lure	n/a	n/a	n/a	1
440.009	0.649988809	POTION	lure	n/a	n/a	n/a	1
440.659	0.749992939	BUTCHERY	lure	n/a	n/a	n/a	1
441.409	0.333328894	LEGUME	lure	n/a	n/a	n/a	1
441.742	0.616659961	SOAP	short	n/a	n/a	n/a	1
442.359	0.749986221	SUNFISH	lure	n/a	n/a	n/a	1
443.109	0.449995809	TOUCHSTONE	lure	n/a	n/a	n/a	1
443.559	0.466656792	KINGPIN	lure	n/a	n/a	n/a	1
444.026	0.549994225	SAWMILL	lure	n/a	n/a	n/a	1
444.576	0.699990289	EYELASH	lure	n/a	n/a	n/a	1
445.276	0.48332526	AIRFIELD	lure	n/a	n/a	n/a	1
445.759	0.399999215	LADY	lure	n/a	n/a	n/a	1
446.159	0.316659059	OSTEOPATHY	lure	n/a	n/a	n/a	1
446.476	0.76666018	TREACHERY	lure	n/a	n/a	n/a	1
447.242	0.566658408	WHISPERER	lure	n/a	n/a	n/a	1
447.809	0.366660572	REPARATION	lure	n/a	n/a	n/a	1
448.176	0.416661721	CAPITAL	lure	n/a	n/a	n/a	1
448.592	0.516661641	BUNGALOW	lure	n/a	n/a	n/a	1
449.109	0.766654824	STANZA	lure	n/a	n/a	n/a	1
449.876	0.449993718	ACTIVISM	lure	n/a	n/a	n/a	1
450.326	2.016636228	DEPOT	long	n/a	n/a	n/a	1
452.342	0.350000268	PARASOL	lure	n/a	n/a	n/a	1
452.692	0.349994462	MILDEW	lure	n/a	n/a	n/a	1
453.042	0.500002574	CINEMA	lure	n/a	n/a	n/a	1
453.542	0.449987486	ABRASION	lure	n/a	n/a	n/a	1
453.992	0.38336587	WISDOM	lure	n/a	n/a	n/a	1
454.376	0.799949675	GRATITUDE	lure	n/a	n/a	n/a	1
455.176	0.549990688	TREATY	lure	n/a	n/a	n/a	1
455.726	0.59999033	MINESTRONE	lure	n/a	n/a	n/a	1
456.326	0.44999433	CLIPPER	lure	n/a	n/a	n/a	1
456.776	0.516659049	CHIEFTAIN	lure	n/a	n/a	n/a	1
457.292	0.583329086	EGGNOG	lure	n/a	n/a	n/a	1
457.876	0.449993974	PACIFIER	lure	n/a	n/a	n/a	1
458.326	0.516658831	RATIONALE	lure	n/a	n/a	n/a	1
458.842	0.649992426	EVANGELIST	lure	n/a	n/a	n/a	1
459.492	0.566655837	FUNFAIR	lure	n/a	n/a	n/a	1
460.059	0.683325889	NECESSITY	lure	n/a	n/a	n/a	1
460.742	0.399994025	ANARCHY	lure	n/a	n/a	n/a	1
461.142	0.683379154	MISFORTUNE	lure	n/a	n/a	n/a	1
461.826	0.516603723	SAVER	lure	n/a	n/a	n/a	1
462.342	0.316718916	COPYBOOK	lure	n/a	n/a	n/a	1
462.659	0.749936363	FLOATER	lure	n/a	n/a	n/a	1
463.409	0.616655416	BEQUEST	lure	n/a	n/a	n/a	1
464.025	0.34999563	JAB	lure	n/a	n/a	n/a	1
464.375	n/a	CANTEEN	lure	n/a	n/a	n/a	1