onset	duration	stim	cond	RT	resp	cresp	acc
4.046	0.732828205	HAYWIRE	lure	n/a	n/a	n/a	1
4.778	0.566661477	SKULLCAP	lure	n/a	n/a	n/a	1
5.345	0.699990851	ETHER	lure	n/a	n/a	n/a	1
6.045	0.56665874	INITIATION	lure	n/a	n/a	n/a	1
6.612	0.533327105	DERIVATION	lure	n/a	n/a	n/a	1
7.145	0.499988738	BASEMENT	lure	n/a	n/a	n/a	1
7.645	0.616664127	FLEET	short	n/a	n/a	n/a	1
8.262	0.749987682	BRUISER	lure	n/a	n/a	n/a	1
9.012	0.333328972	MOSQUE	lure	n/a	n/a	n/a	1
9.345	0.633321703	MANNEQUIN	lure	n/a	n/a	n/a	1
9.978	0.366666084	WASHBASIN	lure	n/a	n/a	n/a	1
10.345	0.749988307	CAVALRYMEN	lure	n/a	n/a	n/a	1
11.095	0.333328536	BROCHURE	lure	n/a	n/a	n/a	1
11.428	0.333328877	DIFFICULTY	lure	n/a	n/a	n/a	1
11.762	0.566658997	THUMBNAIL	lure	n/a	n/a	n/a	1
12.328	0.533326507	BIOLOGIST	lure	n/a	n/a	n/a	1
12.862	0.749989412	SOBRIETY	lure	n/a	n/a	n/a	1
13.612	0.699991117	SCALLION	lure	n/a	n/a	n/a	1
14.312	0.749989842	CHOPSTICK	lure	n/a	n/a	n/a	1
15.062	0.58332421	COPYWRITER	lure	n/a	n/a	n/a	1
15.645	0.383329475	TERRAIN	lure	n/a	n/a	n/a	1
16.028	2.016639777	PARADE	long	n/a	n/a	n/a	1
18.045	0.649989867	COCHLEA	lure	n/a	n/a	n/a	1
18.695	0.618756904	GRINDER	lure	n/a	n/a	n/a	1
19.314	0.581226706	MASON	lure	n/a	n/a	n/a	1
19.895	0.349995095	SYCAMORE	lure	n/a	n/a	n/a	1
20.245	0.583326738	STAKEOUT	lure	n/a	n/a	n/a	1
20.828	0.366659114	SHOWMAN	lure	n/a	n/a	n/a	1
21.195	0.583327404	CONQUEST	lure	n/a	n/a	n/a	1
21.778	0.549990749	STORAGE	lure	n/a	n/a	n/a	1
22.328	0.649992254	UNDERDOG	lure	n/a	n/a	n/a	1
22.978	0.416661735	WAITER	lure	n/a	n/a	n/a	1
23.395	0.499990199	REACTION	lure	n/a	n/a	n/a	1
23.895	0.383330585	EYEPIECE	lure	n/a	n/a	n/a	1
24.278	0.616657728	ENGINE	short	n/a	n/a	n/a	1
24.895	0.366662967	DAIRYMAN	lure	n/a	n/a	n/a	1
25.262	0.583324225	BELLHOP	lure	n/a	n/a	n/a	1
25.845	0.616658645	WATERCOLOR	lure	n/a	n/a	n/a	1
26.462	0.416660502	DIPPER	lure	n/a	n/a	n/a	1
26.878	0.599991881	NONPAYMENT	lure	n/a	n/a	n/a	1
27.478	0.533326587	NONFICTION	lure	n/a	n/a	n/a	1
28.012	0.749990459	NAUGHT	lure	n/a	n/a	n/a	1
28.762	0.616655435	FLOORBOARD	lure	n/a	n/a	n/a	1
29.378	0.583324538	ENTITY	lure	n/a	n/a	n/a	1
29.961	0.649993426	PENCE	lure	n/a	n/a	n/a	1
30.611	0.566659494	CORNEA	lure	n/a	n/a	n/a	1
31.178	0.75004652	VALE	lure	n/a	n/a	n/a	1
31.928	0.383275166	INTERLINK	lure	n/a	n/a	n/a	1
32.311	2.016639939	GIFT	long	n/a	n/a	n/a	1
34.328	0.650034707	PROJECT	lure	n/a	n/a	n/a	1
34.978	0.367085616	HALTER	lure	n/a	n/a	n/a	1
35.345	0.516187105	GRANDEUR	lure	n/a	n/a	n/a	1
35.861	0.633328012	EXALTATION	lure	n/a	n/a	n/a	1
36.495	0.749987497	FAIRGROUND	lure	n/a	n/a	n/a	1
37.245	0.516662073	BROWNING	lure	n/a	n/a	n/a	1
37.761	0.566653863	FAIRYLAND	lure	n/a	n/a	n/a	1
38.328	0.383333141	REDDING	lure	n/a	n/a	n/a	1
38.711	0.599991305	UNDERBRUSH	lure	n/a	n/a	n/a	1
39.311	0.633322815	SYNDROME	lure	n/a	n/a	n/a	1
39.945	0.583325388	RADAR	lure	n/a	n/a	n/a	1
40.528	1.016653054	CANTELOUPE	fruit	n/a	n/a	2	0
41.545	0.649993459	HEADMASTER	lure	n/a	n/a	n/a	1
42.195	0.39999442	BACKBONE	lure	n/a	n/a	n/a	1
42.595	0.566654228	FIREBALL	lure	n/a	n/a	n/a	1
43.161	0.733326563	NEURON	lure	n/a	n/a	n/a	1
43.895	0.566698454	VICTORY	lure	n/a	n/a	n/a	1
44.461	0.499950159	FLOWCHART	lure	n/a	n/a	n/a	1
44.961	0.649990325	REIN	lure	n/a	n/a	n/a	1
45.611	0.599997851	CROSSOVER	lure	n/a	n/a	n/a	1
46.211	0.783319844	RETELLING	lure	n/a	n/a	n/a	1
46.995	0.616657354	NEWSPRINT	lure	n/a	n/a	n/a	1
47.611	0.416661813	EMBOLISM	lure	n/a	n/a	n/a	1
48.028	0.599994721	GRANITE	lure	n/a	n/a	n/a	1
48.628	0.366662974	RAWHIDE	lure	n/a	n/a	n/a	1
48.995	0.616654528	SOAP	short	n/a	n/a	n/a	1
49.611	0.416662672	OUTPORT	lure	n/a	n/a	n/a	1
50.028	0.599989429	CHAIRWOMAN	lure	n/a	n/a	n/a	1
50.628	0.468824617	EXTROVERT	lure	n/a	n/a	n/a	1
51.097	0.38116145	OUTCRY	lure	n/a	n/a	n/a	1
51.478	0.4500621	MENTHOL	lure	n/a	n/a	n/a	1
51.928	0.516592985	COVE	lure	n/a	n/a	n/a	1
52.445	0.34999371	PENICILLIN	lure	n/a	n/a	n/a	1
52.795	0.433327015	QUARRYMEN	lure	n/a	n/a	n/a	1
53.228	0.633326748	RESISTANCE	lure	n/a	n/a	n/a	1
53.861	0.652875812	WRINGER	lure	n/a	n/a	n/a	1
54.514	0.363775524	DECIBEL	lure	n/a	n/a	n/a	1
54.878	0.64999277	HELPER	lure	n/a	n/a	n/a	1
55.528	0.699990219	GENEROSITY	lure	n/a	n/a	n/a	1
56.228	0.566660984	DISTORTION	lure	n/a	n/a	n/a	1
56.794	0.433327118	SERMON	lure	n/a	n/a	n/a	1
57.228	1.016691231	GRAPEFRUIT	fruit	611	2	2	1
58.244	0.633286028	HICKORY	lure	n/a	n/a	n/a	1
58.878	0.66666006	TALISMAN	lure	n/a	n/a	n/a	1
59.544	0.683320634	GRADUATION	lure	n/a	n/a	n/a	1
60.228	0.366661217	CATWALK	lure	n/a	n/a	n/a	1
60.594	0.483333651	KNOBBY	lure	n/a	n/a	n/a	1
61.078	0.449985754	OFFICE	lure	n/a	n/a	n/a	1
61.528	0.699994854	DEER	lure	n/a	n/a	n/a	1
62.228	0.616654095	SPATULA	lure	n/a	n/a	n/a	1
62.844	0.649997668	CONCEIT	lure	n/a	n/a	n/a	1
63.494	0.449989395	RUBRIC	lure	n/a	n/a	n/a	1
63.944	0.36666305	WRISTBAND	lure	n/a	n/a	n/a	1
64.311	0.633327254	DIFFUSION	lure	n/a	n/a	n/a	1
64.944	0.483326816	LADDIE	lure	n/a	n/a	n/a	1
65.428	0.616652165	COAT	short	n/a	n/a	n/a	1
66.044	0.333328408	ADRENALIN	lure	n/a	n/a	n/a	1
66.378	0.633329015	WATCHDOG	lure	n/a	n/a	n/a	1
67.011	0.399991167	ABRIDGMENT	lure	n/a	n/a	n/a	1
67.411	0.549996912	TENDERFOOT	lure	n/a	n/a	n/a	1
67.961	0.633323625	TANTRUM	lure	n/a	n/a	n/a	1
68.594	0.516710802	FIGUREHEAD	lure	n/a	n/a	n/a	1
69.111	0.549942364	CARLOAD	lure	n/a	n/a	n/a	1
69.661	0.633324219	JUNCTION	lure	n/a	n/a	n/a	1
70.294	0.433326903	TROUT	lure	n/a	n/a	n/a	1
70.728	0.466656638	MATH	lure	n/a	n/a	n/a	1
71.194	0.766657242	SHIPLOAD	lure	n/a	n/a	n/a	1
71.961	0.416665005	HICK	lure	n/a	n/a	n/a	1
72.378	0.316662514	DIAPER	lure	n/a	n/a	n/a	1
72.694	0.583318924	COMPOSITOR	lure	n/a	n/a	n/a	1
73.278	0.683329859	WATERSPOUT	lure	n/a	n/a	n/a	1
73.961	2.016638536	PUTTY	long	n/a	n/a	n/a	1
75.978	0.416659488	CAPTOR	lure	n/a	n/a	n/a	1
76.394	0.499992376	PULSAR	lure	n/a	n/a	n/a	1
76.894	0.716656815	SALAMANDER	lure	n/a	n/a	n/a	1
77.611	0.499997328	UPSHOT	lure	n/a	n/a	n/a	1
78.111	0.316658826	DEFAMATION	lure	n/a	n/a	n/a	1
78.427	0.616660804	LAGOON	lure	n/a	n/a	n/a	1
79.044	0.583323218	DISTENSION	lure	n/a	n/a	n/a	1
79.627	0.499991871	PANTHEON	lure	n/a	n/a	n/a	1
80.127	0.733326718	WINGSPAN	lure	n/a	n/a	n/a	1
80.861	0.73332574	PHOSPHATE	lure	n/a	n/a	n/a	1
81.594	0.433324878	ANIMATION	lure	n/a	n/a	n/a	1
82.027	0.616656448	SUDS	short	n/a	n/a	n/a	1
82.644	0.599991381	BERK	lure	n/a	n/a	n/a	1
83.244	0.44999411	REGISTRAR	lure	n/a	n/a	n/a	1
83.694	0.316661603	DOLPHIN	lure	n/a	n/a	n/a	1
84.011	0.333330144	INSTINCT	lure	n/a	n/a	n/a	1
84.344	0.499995538	DOLLY	lure	n/a	n/a	n/a	1
84.844	0.683323448	TENURE	lure	n/a	n/a	n/a	1
85.527	0.583328761	AMUSEMENT	lure	n/a	n/a	n/a	1
86.111	0.433380247	HANDMAIDEN	lure	n/a	n/a	n/a	1
86.544	0.466604485	PAYROLL	lure	n/a	n/a	n/a	1
87.011	0.566673215	SARCASM	lure	n/a	n/a	n/a	1
87.577	0.666639338	ARCHERY	lure	n/a	n/a	n/a	1
88.244	0.599995138	LAWMEN	lure	n/a	n/a	n/a	1
88.844	0.766658671	OFFENSE	lure	n/a	n/a	n/a	1
89.611	0.733321836	BANDMASTER	lure	n/a	n/a	n/a	1
90.344	0.34999422	TOWNSFOLK	lure	n/a	n/a	n/a	1
90.694	2.016639909	FLAG	long	n/a	n/a	n/a	1
92.711	0.549992178	ACTIVATION	lure	n/a	n/a	n/a	1
93.261	0.449990437	COWBELL	lure	n/a	n/a	n/a	1
93.711	0.733329506	HEARTH	lure	n/a	n/a	n/a	1
94.444	0.383323218	POSTSCRIPT	lure	n/a	n/a	n/a	1
94.827	0.366664397	PAYCHECK	lure	n/a	n/a	n/a	1
95.194	0.316659698	DESTINY	lure	n/a	n/a	n/a	1
95.511	0.416661085	WINDSOCK	lure	n/a	n/a	n/a	1
95.927	0.333327907	FLIER	lure	n/a	n/a	n/a	1
96.261	0.616662061	ALLIANCE	lure	n/a	n/a	n/a	1
96.877	0.56670991	EUPHEMISM	lure	n/a	n/a	n/a	1
97.444	0.733271843	PARKLAND	lure	n/a	n/a	n/a	1
98.177	0.433325998	EYESIGHT	lure	n/a	n/a	n/a	1
98.611	0.333650057	STREET	lure	n/a	n/a	n/a	1
98.944	1.016328491	MANGO	fruit	726	2	2	1
99.961	0.633332407	EARRING	lure	n/a	n/a	n/a	1
100.594	0.666654952	VANITY	lure	n/a	n/a	n/a	1
101.261	0.466663343	GEYSER	lure	n/a	n/a	n/a	1
101.727	0.733320993	DEFECTOR	lure	n/a	n/a	n/a	1
102.461	0.333330048	SOLICITOR	lure	n/a	n/a	n/a	1
102.794	0.583320053	YEARBOOK	lure	n/a	n/a	n/a	1
103.377	0.599992058	DUSTPAN	lure	n/a	n/a	n/a	1
103.977	0.58332693	ARMLOAD	lure	n/a	n/a	n/a	1
104.56	0.699990224	CREEK	lure	n/a	n/a	n/a	1
105.26	0.599992159	PERIWINKLE	lure	n/a	n/a	n/a	1
105.86	0.58332371	INNOVATOR	lure	n/a	n/a	n/a	1
106.444	0.733376228	GROVE	lure	n/a	n/a	n/a	1
107.177	0.649942211	LAUNDRY	short	n/a	n/a	n/a	1
107.827	0.366705198	SHAM	lure	n/a	n/a	n/a	1
108.194	0.449947839	SLAB	lure	n/a	n/a	n/a	1
108.644	0.504035013	DEADLOCK	lure	n/a	n/a	n/a	1
109.148	0.479289004	REDNECK	lure	n/a	n/a	n/a	1
109.627	0.39999601	CONTENT	lure	n/a	n/a	n/a	1
110.027	0.63331969	DATA	lure	n/a	n/a	n/a	1
110.66	0.599991628	DEPICTION	lure	n/a	n/a	n/a	1
111.26	0.316662353	BURIAL	lure	n/a	n/a	n/a	1
111.577	0.533329474	DRIFTWOOD	lure	n/a	n/a	n/a	1
112.11	0.516656417	VIOLATION	lure	n/a	n/a	n/a	1
112.627	0.533325068	DOWNPOUR	lure	n/a	n/a	n/a	1
113.16	0.400052132	VARIANCE	lure	n/a	n/a	n/a	1
113.56	0.716605833	RATTLETRAP	lure	n/a	n/a	n/a	1
114.277	0.566656861	KEYHOLE	lure	n/a	n/a	n/a	1
114.844	0.399997465	FINISHER	lure	n/a	n/a	n/a	1
115.244	2.016636114	CORK	long	n/a	n/a	n/a	1
117.26	0.399992775	HANGOVER	lure	n/a	n/a	n/a	1
117.66	0.38332835	VASSAL	lure	n/a	n/a	n/a	1
118.044	0.53332953	IMMERSION	lure	n/a	n/a	n/a	1
118.577	0.616654796	PUPPETEER	lure	n/a	n/a	n/a	1
119.194	0.516658525	ADDITIVE	lure	n/a	n/a	n/a	1
119.71	0.366662206	ASSUMPTION	lure	n/a	n/a	n/a	1
120.077	0.699990615	PUFFBALL	lure	n/a	n/a	n/a	1
120.777	0.549995728	HULA	lure	n/a	n/a	n/a	1
121.327	0.737240491	FATSO	lure	n/a	n/a	n/a	1
122.064	0.396074151	FIELDER	lure	n/a	n/a	n/a	1
122.46	0.649994115	GASMASK	lure	n/a	n/a	n/a	1
123.11	0.749986275	POOCH	lure	n/a	n/a	n/a	1
123.86	2.01664051	COAL	long	n/a	n/a	n/a	1
125.877	0.533326055	LOFT	lure	n/a	n/a	n/a	1
126.41	0.333328701	LIFEBOAT	lure	n/a	n/a	n/a	1
126.744	0.633328135	SETTER	lure	n/a	n/a	n/a	1
127.377	0.383327475	RELATIVITY	lure	n/a	n/a	n/a	1
127.76	0.450121561	PROTRACTOR	lure	n/a	n/a	n/a	1
128.21	0.433196361	LINER	lure	n/a	n/a	n/a	1
128.643	0.549994171	BOARDROOM	lure	n/a	n/a	n/a	1
129.193	0.449993603	HAMLET	lure	n/a	n/a	n/a	1
129.643	0.449994114	CHIFFON	lure	n/a	n/a	n/a	1
130.093	0.649992781	INDUCEMENT	lure	n/a	n/a	n/a	1
130.743	0.483329403	NEWT	lure	n/a	n/a	n/a	1
131.227	0.533318746	SCARF	lure	n/a	n/a	n/a	1
131.76	0.616663207	MAGAZINE	short	n/a	n/a	n/a	1
132.377	0.499995308	OPERATION	lure	n/a	n/a	n/a	1
132.877	0.749985198	LIEUTENANT	lure	n/a	n/a	n/a	1
133.627	0.39999756	REFUND	lure	n/a	n/a	n/a	1
134.027	0.749989853	BONDHOLDER	lure	n/a	n/a	n/a	1
134.777	0.416657394	PAYOFF	lure	n/a	n/a	n/a	1
135.193	0.399999823	CIGAR	lure	n/a	n/a	n/a	1
135.593	0.31665831	PARABOLA	lure	n/a	n/a	n/a	1
135.91	0.549994301	MARTYRDOM	lure	n/a	n/a	n/a	1
136.46	0.533323237	HOUR	lure	n/a	n/a	n/a	1
136.993	0.53332685	SOLSTICE	lure	n/a	n/a	n/a	1
137.527	0.533326599	PUN	lure	n/a	n/a	n/a	1
138.06	0.417488114	ARMFUL	lure	n/a	n/a	n/a	1
138.478	0.465834645	STRATEGIST	lure	n/a	n/a	n/a	1
138.943	0.433328535	FREEHOLDER	lure	n/a	n/a	n/a	1
139.377	0.433325834	ARTISTRY	lure	n/a	n/a	n/a	1
139.81	0.649993017	POD	lure	n/a	n/a	n/a	1
140.46	2.016636924	PUMP	long	n/a	n/a	n/a	1
142.477	0.599995457	JUKEBOX	lure	n/a	n/a	n/a	1
143.077	0.516655924	CITY	lure	n/a	n/a	n/a	1
143.593	0.633327028	VISITOR	lure	n/a	n/a	n/a	1
144.227	0.516660063	BULLETIN	lure	n/a	n/a	n/a	1
144.743	0.604082927	BACKGROUND	lure	n/a	n/a	n/a	1
145.347	0.545902095	BEARSKIN	lure	n/a	n/a	n/a	1
145.893	0.666652863	REVOLVER	lure	n/a	n/a	n/a	1
146.56	0.650001927	FREEBIE	lure	n/a	n/a	n/a	1
147.21	0.716646746	PIPELINE	lure	n/a	n/a	n/a	1
147.927	0.733323419	AFFAIR	lure	n/a	n/a	n/a	1
148.66	2.016642418	EARTHQUAKE	long	n/a	n/a	n/a	1
150.677	0.566657509	BATCH	lure	n/a	n/a	n/a	1
151.243	0.41670106	GEOGRAPHER	lure	n/a	n/a	n/a	1
151.66	0.649951748	FOLKLORIST	lure	n/a	n/a	n/a	1
152.31	0.666659195	INACCURACY	lure	n/a	n/a	n/a	1
152.976	0.333325811	AUCTIONEER	lure	n/a	n/a	n/a	1
153.31	0.449998282	OUTFIELDER	lure	n/a	n/a	n/a	1
153.76	0.633323083	DISSIDENCE	lure	n/a	n/a	n/a	1
154.393	0.583324623	BARRACUDA	lure	n/a	n/a	n/a	1
154.976	0.749988461	LABYRINTH	lure	n/a	n/a	n/a	1
155.726	0.71666256	REFERRAL	lure	n/a	n/a	n/a	1
156.443	0.668095802	WARRIOR	lure	n/a	n/a	n/a	1
157.111	0.615214693	PELLET	short	n/a	n/a	n/a	1
157.726	0.316662596	ESCAPEE	lure	n/a	n/a	n/a	1
158.043	0.416663464	LYNX	lure	n/a	n/a	n/a	1
158.46	0.633323579	KINGFISHER	lure	n/a	n/a	n/a	1
159.093	0.733321969	AIRBASE	lure	n/a	n/a	n/a	1
159.826	0.466661851	ANGLER	lure	n/a	n/a	n/a	1
160.293	0.516658459	GASTRONOMY	lure	n/a	n/a	n/a	1
160.81	0.633327395	NEBULA	lure	n/a	n/a	n/a	1
161.443	0.666655322	DUPLICITY	lure	n/a	n/a	n/a	1
162.11	0.54999382	WORDPLAY	lure	n/a	n/a	n/a	1
162.66	0.666656432	SCARECROW	lure	n/a	n/a	n/a	1
163.326	0.43332823	BRA	lure	n/a	n/a	n/a	1
163.76	0.616658314	INVESTOR	lure	n/a	n/a	n/a	1
164.376	0.699993567	SNOWFALL	lure	n/a	n/a	n/a	1
165.076	0.483324671	POEM	lure	n/a	n/a	n/a	1
165.56	1.01665122	PLUM	fruit	791	2	2	1
166.576	0.316663728	MINUTEMEN	lure	n/a	n/a	n/a	1
166.893	0.39999589	MOUSTACHE	lure	n/a	n/a	n/a	1
167.293	0.749993073	BEECH	lure	n/a	n/a	n/a	1
168.043	0.633318561	PARABLE	lure	n/a	n/a	n/a	1
168.676	0.366704864	SEAWAY	lure	n/a	n/a	n/a	1
169.043	0.684591224	TAILPIECE	lure	n/a	n/a	n/a	1
169.728	0.598684645	UNANIMITY	lure	n/a	n/a	n/a	1
170.326	0.566655208	COLLARBONE	lure	n/a	n/a	n/a	1
170.893	0.699992338	ELECTRODE	lure	n/a	n/a	n/a	1
171.593	0.483328861	HONEYCOMB	lure	n/a	n/a	n/a	1
172.076	0.549993098	DISBELIEF	lure	n/a	n/a	n/a	1
172.626	0.549989336	BISHOP	lure	n/a	n/a	n/a	1
173.176	0.633325731	BURNSIDE	lure	n/a	n/a	n/a	1
173.81	2.016644522	DEPOT	long	n/a	n/a	n/a	1
175.826	0.616658099	PAINTBOX	lure	n/a	n/a	n/a	1
176.443	0.499988764	LIBERATOR	lure	n/a	n/a	n/a	1
176.943	0.416661922	DOER	lure	n/a	n/a	n/a	1
177.359	0.416658139	BOOKCLUB	lure	n/a	n/a	n/a	1
177.776	0.666656999	STUDIO	lure	n/a	n/a	n/a	1
178.443	0.718786529	REFLEX	lure	n/a	n/a	n/a	1
179.162	0.347866958	HOUSEWORK	lure	n/a	n/a	n/a	1
179.509	0.583328809	EVERGREEN	lure	n/a	n/a	n/a	1
180.093	0.34999204	DRAMA	lure	n/a	n/a	n/a	1
180.443	0.466660105	EJECTOR	lure	n/a	n/a	n/a	1
180.909	0.433327426	BALM	lure	n/a	n/a	n/a	1
181.343	0.349999513	STAIRWAY	lure	n/a	n/a	n/a	1
181.693	2.054192178	RAMP	long	n/a	n/a	n/a	1
183.747	0.579102461	CLERGY	lure	n/a	n/a	n/a	1
184.326	0.449996136	ARCHDUKE	lure	n/a	n/a	n/a	1
184.776	0.633321747	LETTERMEN	lure	n/a	n/a	n/a	1
185.409	0.516700042	FIELDSMAN	lure	n/a	n/a	n/a	1
185.926	0.366624523	FLAGSHIP	lure	n/a	n/a	n/a	1
186.293	0.633603231	WARTHOG	lure	n/a	n/a	n/a	1
186.926	0.399713375	COUCH	lure	n/a	n/a	n/a	1
187.326	0.433330218	RESISTOR	lure	n/a	n/a	n/a	1
187.759	0.333327897	GUSHER	lure	n/a	n/a	n/a	1
188.093	0.616660668	LOCKJAW	lure	n/a	n/a	n/a	1
188.709	0.699987058	VOLATILITY	lure	n/a	n/a	n/a	1
189.409	0.64999171	MOONSHINE	lure	n/a	n/a	n/a	1
190.059	0.616658046	JAIL	short	n/a	n/a	n/a	1
190.676	0.683327095	MOBILITY	lure	n/a	n/a	n/a	1
191.359	0.649986699	CHEESE	lure	n/a	n/a	n/a	1
192.009	0.46666233	EYEWASH	lure	n/a	n/a	n/a	1
192.476	0.716658201	INSPECTOR	lure	n/a	n/a	n/a	1
193.193	0.733324723	PRODUCTION	lure	n/a	n/a	n/a	1
193.926	0.416659514	BYSTANDER	lure	n/a	n/a	n/a	1
194.343	0.666658552	JOY	lure	n/a	n/a	n/a	1
195.009	0.649989016	BUFFOON	lure	n/a	n/a	n/a	1
195.659	0.333328587	DUCT	lure	n/a	n/a	n/a	1
195.993	0.516665523	WRATH	lure	n/a	n/a	n/a	1
196.509	0.366661232	FIREBIRD	lure	n/a	n/a	n/a	1
196.876	0.466697208	SOCIALISM	lure	n/a	n/a	n/a	1
197.343	0.699947376	DISHWATER	lure	n/a	n/a	n/a	1
198.043	0.316662345	DICTATOR	lure	n/a	n/a	n/a	1
198.359	1.016653988	LIME	fruit	n/a	n/a	2	0
199.376	0.33336944	CORRUPTER	lure	n/a	n/a	n/a	1
199.709	0.733286142	HEADSTAND	lure	n/a	n/a	n/a	1
200.443	0.516659414	SUBJECTION	lure	n/a	n/a	n/a	1
200.959	0.733321832	BOAR	lure	n/a	n/a	n/a	1
201.692	0.600035798	SENTRY	lure	n/a	n/a	n/a	1
202.293	0.716612965	MATRIMONY	lure	n/a	n/a	n/a	1
203.009	0.549992122	MOUSETRAP	lure	n/a	n/a	n/a	1
203.559	0.499998002	PUZZLEMENT	lure	n/a	n/a	n/a	1
204.059	0.316657308	AMPLITUDE	lure	n/a	n/a	n/a	1
204.376	0.683323969	SHOWMEN	lure	n/a	n/a	n/a	1
205.059	0.366664715	FULLBACK	lure	n/a	n/a	n/a	1
205.426	0.720346039	LIBRARIAN	lure	n/a	n/a	n/a	1
206.146	0.564791342	HEN	lure	n/a	n/a	n/a	1
206.711	0.614836025	CHART	short	n/a	n/a	n/a	1
207.326	0.533327018	MOLECULE	lure	n/a	n/a	n/a	1
207.859	0.349997062	DAFFODIL	lure	n/a	n/a	n/a	1
208.209	0.399994917	BUNKHOUSE	lure	n/a	n/a	n/a	1
208.609	0.416655969	MELANCHOLY	lure	n/a	n/a	n/a	1
209.026	0.366664513	HYMNAL	lure	n/a	n/a	n/a	1
209.392	0.516660512	PRAGMATIST	lure	n/a	n/a	n/a	1
209.909	0.749985457	INFIRMITY	lure	n/a	n/a	n/a	1
210.659	0.649995201	LEGEND	lure	n/a	n/a	n/a	1
211.309	0.34999274	DEFERENCE	lure	n/a	n/a	n/a	1
211.659	0.733326603	HOMESTEAD	lure	n/a	n/a	n/a	1
212.392	0.504239914	SHORTFALL	lure	n/a	n/a	n/a	1
212.897	0.562451134	TEPEE	lure	n/a	n/a	n/a	1
213.459	0.38328497	MARSH	lure	n/a	n/a	n/a	1
213.842	0.666664369	WAIVER	lure	n/a	n/a	n/a	1
214.509	0.4666573	FILAMENT	lure	n/a	n/a	n/a	1
214.976	1.018290115	CRANBERRY	fruit	767	2	2	1
215.994	0.698354052	STOWAWAY	lure	n/a	n/a	n/a	1
216.692	0.633324065	GRAPHITE	lure	n/a	n/a	n/a	1
217.326	0.716657696	SIMPLICITY	lure	n/a	n/a	n/a	1
218.042	0.549990844	CREMATION	lure	n/a	n/a	n/a	1
218.592	0.43333255	TORQUE	lure	n/a	n/a	n/a	1
219.026	0.39998864	BLOODHOUND	lure	n/a	n/a	n/a	1
219.426	0.566658829	JUBILEE	lure	n/a	n/a	n/a	1
219.992	0.516660314	SUMMERTIME	lure	n/a	n/a	n/a	1
220.509	0.683322944	NEWCOMER	lure	n/a	n/a	n/a	1
221.192	0.333330873	HILL	lure	n/a	n/a	n/a	1
221.526	0.654053071	FRAMEWORK	lure	n/a	n/a	n/a	1
222.18	0.645930328	PRECEPTOR	lure	n/a	n/a	n/a	1
222.826	0.316660242	TOLERATION	lure	n/a	n/a	n/a	1
223.142	0.349997994	COWBOY	lure	n/a	n/a	n/a	1
223.492	0.716654758	MINISTRY	lure	n/a	n/a	n/a	1
224.209	0.683332172	RUDDER	lure	n/a	n/a	n/a	1
224.892	0.36665508	CHORD	lure	n/a	n/a	n/a	1
225.259	0.683323586	ASSIGNMENT	lure	n/a	n/a	n/a	1
225.942	0.716656058	NIP	lure	n/a	n/a	n/a	1
226.659	n/a	GUNNER	lure	n/a	n/a	n/a	1
238.009	0.616657959	TOAD	lure	n/a	n/a	n/a	1
238.625	0.433325905	MONASTERY	lure	n/a	n/a	n/a	1
239.059	0.683325691	JOGGER	lure	n/a	n/a	n/a	1
239.742	0.733319638	SUBSYSTEM	lure	n/a	n/a	n/a	1
240.475	0.634872722	UNISON	lure	n/a	n/a	n/a	1
241.11	0.398450081	CHUNK	lure	n/a	n/a	n/a	1
241.509	2.016639794	PARADE	long	n/a	n/a	n/a	1
243.525	0.316662104	TARIFF	lure	n/a	n/a	n/a	1
243.842	0.550591002	SALESMAN	lure	n/a	n/a	n/a	1
244.393	0.349397012	VESTMENT	lure	n/a	n/a	n/a	1
244.742	0.316659047	MONOGAMY	lure	n/a	n/a	n/a	1
245.059	0.399997897	BOUNTY	lure	n/a	n/a	n/a	1
245.459	0.39999172	SETTLER	lure	n/a	n/a	n/a	1
245.859	0.59999513	YEARLING	lure	n/a	n/a	n/a	1
246.459	0.633326757	MAILBOX	lure	n/a	n/a	n/a	1
247.092	0.649987031	MUG	lure	n/a	n/a	n/a	1
247.742	0.616660306	JUMPER	lure	n/a	n/a	n/a	1
248.359	0.699991015	SPIDER	lure	n/a	n/a	n/a	1
249.059	0.516659346	GUILD	lure	n/a	n/a	n/a	1
249.575	0.649991692	SUDS	short	n/a	n/a	n/a	1
250.225	0.499994052	SNOB	lure	n/a	n/a	n/a	1
250.725	0.599992172	UTENSIL	lure	n/a	n/a	n/a	1
251.325	0.466659982	COUP	lure	n/a	n/a	n/a	1
251.792	0.316658769	NIGHTCAP	lure	n/a	n/a	n/a	1
252.108	0.51666261	IMMEDIACY	lure	n/a	n/a	n/a	1
252.625	0.399995219	SUFFERER	lure	n/a	n/a	n/a	1
253.025	0.383324385	COMMA	lure	n/a	n/a	n/a	1
253.408	0.416669472	SANDBOX	lure	n/a	n/a	n/a	1
253.825	0.383322197	PREHISTORY	lure	n/a	n/a	n/a	1
254.208	0.466661423	INKWELL	lure	n/a	n/a	n/a	1
254.675	0.499993016	PURSUANCE	lure	n/a	n/a	n/a	1
255.175	0.683323734	PORTFOLIO	lure	n/a	n/a	n/a	1
255.858	0.616659918	WHIZ	lure	n/a	n/a	n/a	1
256.475	0.483326205	FOOTER	lure	n/a	n/a	n/a	1
256.958	0.617577224	MEMORIAL	lure	n/a	n/a	n/a	1
257.576	0.799069777	ACCEPTANCE	lure	n/a	n/a	n/a	1
258.375	1.016652628	PEACH	fruit	n/a	n/a	2	0
259.392	0.63332579	SPOTTER	lure	n/a	n/a	n/a	1
260.025	0.549992772	WRIGHT	lure	n/a	n/a	n/a	1
260.575	0.466660215	CHALLENGER	lure	n/a	n/a	n/a	1
261.042	0.533325595	VICTOR	lure	n/a	n/a	n/a	1
261.575	0.716656613	OGRE	lure	n/a	n/a	n/a	1
262.292	0.633322309	TREATISE	lure	n/a	n/a	n/a	1
262.925	0.39999359	CACHE	lure	n/a	n/a	n/a	1
263.325	0.737679194	SKYLINE	lure	n/a	n/a	n/a	1
264.063	0.562307451	LETDOWN	lure	n/a	n/a	n/a	1
264.625	0.366662515	WIG	lure	n/a	n/a	n/a	1
264.992	0.416661031	TRIBESMEN	lure	n/a	n/a	n/a	1
265.408	0.733323314	ORCHARD	lure	n/a	n/a	n/a	1
266.142	0.566656348	CEREAL	lure	n/a	n/a	n/a	1
266.708	0.616660457	CHART	short	n/a	n/a	n/a	1
267.325	0.333330258	RUNWAY	lure	n/a	n/a	n/a	1
267.658	0.766654825	GRIEF	lure	n/a	n/a	n/a	1
268.425	0.533326512	AUTHORITY	lure	n/a	n/a	n/a	1
268.958	0.716657262	SCRUTINY	lure	n/a	n/a	n/a	1
269.675	0.716747117	DEWDROP	lure	n/a	n/a	n/a	1
270.392	0.749900547	ANNUITY	lure	n/a	n/a	n/a	1
271.142	0.349995353	PLAGIARIST	lure	n/a	n/a	n/a	1
271.492	0.449994503	EPITAPH	lure	n/a	n/a	n/a	1
271.942	0.650036196	MAMBA	lure	n/a	n/a	n/a	1
272.592	0.566611711	WARFARE	lure	n/a	n/a	n/a	1
273.158	0.4666612	PARTRIDGE	lure	n/a	n/a	n/a	1
273.625	0.700036977	FORGERY	lure	n/a	n/a	n/a	1
274.325	0.333939857	PHOTON	lure	n/a	n/a	n/a	1
274.659	0.599336355	PHONEBOOTH	lure	n/a	n/a	n/a	1
275.258	2.016639636	EARTHQUAKE	long	n/a	n/a	n/a	1
277.275	0.766654106	WESTERNER	lure	n/a	n/a	n/a	1
278.041	0.59999139	MICROWAVE	lure	n/a	n/a	n/a	1
278.641	0.466663032	RETAINER	lure	n/a	n/a	n/a	1
279.108	0.416658489	STRIFE	lure	n/a	n/a	n/a	1
279.525	0.433380587	AWNING	lure	n/a	n/a	n/a	1
279.958	0.583272693	PLENTY	lure	n/a	n/a	n/a	1
280.541	0.720087669	SABBATICAL	lure	n/a	n/a	n/a	1
281.262	0.396560469	AUDIENCE	lure	n/a	n/a	n/a	1
281.658	0.449997346	ROUNDHOUSE	lure	n/a	n/a	n/a	1
282.108	0.533327208	HEARSAY	lure	n/a	n/a	n/a	1
282.641	0.433328607	ROOK	lure	n/a	n/a	n/a	1
283.075	0.38333059	BOOTH	lure	n/a	n/a	n/a	1
283.458	2.016638125	PUTTY	long	n/a	n/a	n/a	1
285.475	0.4499911	PERCENTAGE	lure	n/a	n/a	n/a	1
285.925	0.416660575	VEGETATION	lure	n/a	n/a	n/a	1
286.341	0.466661666	REALITY	lure	n/a	n/a	n/a	1
286.808	0.466721277	HEIR	lure	n/a	n/a	n/a	1
287.275	0.599930243	MOISTURE	lure	n/a	n/a	n/a	1
287.875	0.31666215	GUARDHOUSE	lure	n/a	n/a	n/a	1
288.191	0.333329138	WILDFOWL	lure	n/a	n/a	n/a	1
288.525	0.683324699	SOLUTION	lure	n/a	n/a	n/a	1
289.208	0.349994443	OVEN	lure	n/a	n/a	n/a	1
289.558	0.649990878	CHURCH	lure	n/a	n/a	n/a	1
290.208	0.366662117	TRADEMARK	lure	n/a	n/a	n/a	1
290.575	0.766658782	INHIBITION	lure	n/a	n/a	n/a	1
291.341	0.467283929	FREEWAY	lure	n/a	n/a	n/a	1
291.809	2.01601616	GIFT	long	n/a	n/a	n/a	1
293.825	0.416657254	QUARTZ	lure	n/a	n/a	n/a	1
294.241	0.633326497	FORERUNNER	lure	n/a	n/a	n/a	1
294.875	0.733384284	MOONBEAM	lure	n/a	n/a	n/a	1
295.608	0.683259243	CONVERTER	lure	n/a	n/a	n/a	1
296.291	0.516702828	BISCUIT	lure	n/a	n/a	n/a	1
296.808	0.349955829	ARTERY	lure	n/a	n/a	n/a	1
297.158	0.399994329	BOOKEND	lure	n/a	n/a	n/a	1
297.558	0.433327399	INCITEMENT	lure	n/a	n/a	n/a	1
297.991	0.48332762	BENCH	lure	n/a	n/a	n/a	1
298.475	0.450057369	BABE	lure	n/a	n/a	n/a	1
298.925	0.433263634	TALCUM	lure	n/a	n/a	n/a	1
299.358	0.566660188	WORKMEN	lure	n/a	n/a	n/a	1
299.925	0.616658154	PELLET	short	n/a	n/a	n/a	1
300.541	0.649992762	MAKEUP	lure	n/a	n/a	n/a	1
301.191	0.599989701	APOSTLE	lure	n/a	n/a	n/a	1
301.791	0.499996279	BASELINE	lure	n/a	n/a	n/a	1
302.291	0.600036931	LATCHKEY	lure	n/a	n/a	n/a	1
302.891	0.466612263	DISPENSER	lure	n/a	n/a	n/a	1
303.358	0.533327923	REED	lure	n/a	n/a	n/a	1
303.891	0.333332634	TRIO	lure	n/a	n/a	n/a	1
304.224	0.683356774	GAZEBO	lure	n/a	n/a	n/a	1
304.908	0.599955187	SERVITUDE	lure	n/a	n/a	n/a	1
305.508	0.649988078	SIGNPOST	lure	n/a	n/a	n/a	1
306.158	0.366664352	ROADBLOCK	lure	n/a	n/a	n/a	1
306.524	0.599989709	MEDAL	lure	n/a	n/a	n/a	1
307.124	0.583326738	TRAILER	lure	n/a	n/a	n/a	1
307.708	0.666658136	CIVILITY	lure	n/a	n/a	n/a	1
308.374	0.616657858	FLEET	short	n/a	n/a	n/a	1
308.991	0.566659957	BIGAMIST	lure	n/a	n/a	n/a	1
309.558	0.5666609	IMMENSITY	lure	n/a	n/a	n/a	1
310.124	0.516657712	HUMILITY	lure	n/a	n/a	n/a	1
310.641	0.499993412	UNDERSHIRT	lure	n/a	n/a	n/a	1
311.141	0.449994058	WATERFALL	lure	n/a	n/a	n/a	1
311.591	0.683323586	GAMEKEEPER	lure	n/a	n/a	n/a	1
312.274	0.549992842	MACINTOSH	lure	n/a	n/a	n/a	1
312.824	0.516656239	DOLT	lure	n/a	n/a	n/a	1
313.341	0.349995067	BREASTBONE	lure	n/a	n/a	n/a	1
313.691	0.583330373	OFFENCE	lure	n/a	n/a	n/a	1
314.274	0.433326003	TROPHY	lure	n/a	n/a	n/a	1
314.708	0.33332896	CASSETTE	lure	n/a	n/a	n/a	1
315.041	0.349995007	ARRIVAL	lure	n/a	n/a	n/a	1
315.391	0.449994273	GUNBOAT	lure	n/a	n/a	n/a	1
315.841	0.533325662	GLACIER	lure	n/a	n/a	n/a	1
316.374	0.61665872	MAGAZINE	short	n/a	n/a	n/a	1
316.991	0.533326881	ADVERB	lure	n/a	n/a	n/a	1
317.524	0.433323348	LANDFALL	lure	n/a	n/a	n/a	1
317.958	0.516660071	DOORNAIL	lure	n/a	n/a	n/a	1
318.474	0.699993621	DRIVEWAY	lure	n/a	n/a	n/a	1
319.174	0.48332719	PORCH	lure	n/a	n/a	n/a	1
319.658	0.383328252	MISHAP	lure	n/a	n/a	n/a	1
320.041	0.483388893	THREAT	lure	n/a	n/a	n/a	1
320.524	0.616658909	TRANSIENCE	lure	n/a	n/a	n/a	1
321.141	0.416596539	TREE	lure	n/a	n/a	n/a	1
321.558	0.316664239	ICEMAN	lure	n/a	n/a	n/a	1
321.874	0.533327176	SALESGIRL	lure	n/a	n/a	n/a	1
322.408	0.516718444	CLERGYMAN	lure	n/a	n/a	n/a	1
322.924	0.533266289	GEM	lure	n/a	n/a	n/a	1
323.458	0.433325188	HAMSTER	lure	n/a	n/a	n/a	1
323.891	0.671262271	ADMIRER	lure	n/a	n/a	n/a	1
324.562	0.612055855	JAIL	short	n/a	n/a	n/a	1
325.174	0.683321418	WATCHBAND	lure	n/a	n/a	n/a	1
325.857	0.649995748	TALENT	lure	n/a	n/a	n/a	1
326.507	0.416659454	PROVINCE	lure	n/a	n/a	n/a	1
326.924	0.733319055	SIMULATION	lure	n/a	n/a	n/a	1
327.657	0.649996508	MALLET	lure	n/a	n/a	n/a	1
328.307	0.466659703	BACKLOG	lure	n/a	n/a	n/a	1
328.774	0.666719757	DOGGY	lure	n/a	n/a	n/a	1
329.441	0.433370141	STALKER	lure	n/a	n/a	n/a	1
329.874	0.43322581	POLYMER	lure	n/a	n/a	n/a	1
330.307	0.520355918	SALIVATION	lure	n/a	n/a	n/a	1
330.828	0.612960926	SCRAPBOOK	lure	n/a	n/a	n/a	1
331.441	0.383326322	FIST	lure	n/a	n/a	n/a	1
331.824	0.733325194	INVITATION	lure	n/a	n/a	n/a	1
332.557	0.349993716	HAIKU	lure	n/a	n/a	n/a	1
332.907	1.016650814	CANTELOUPE	fruit	795	2	2	1
333.924	0.433330419	TUMMY	lure	n/a	n/a	n/a	1
334.357	0.416657627	SECULARISM	lure	n/a	n/a	n/a	1
334.774	0.349998338	MART	lure	n/a	n/a	n/a	1
335.124	0.599994503	BEELINE	lure	n/a	n/a	n/a	1
335.724	0.449993809	VODKA	lure	n/a	n/a	n/a	1
336.174	0.416660129	RAINSTORM	lure	n/a	n/a	n/a	1
336.591	0.68332275	AFTERNOON	lure	n/a	n/a	n/a	1
337.274	0.566661297	BROW	lure	n/a	n/a	n/a	1
337.841	0.599989332	PEASANT	lure	n/a	n/a	n/a	1
338.441	0.383329124	ANNEX	lure	n/a	n/a	n/a	1
338.824	0.733319981	RAZZLE	lure	n/a	n/a	n/a	1
339.557	0.56666222	SUCCESSION	lure	n/a	n/a	n/a	1
340.124	0.699993072	NUMERATOR	lure	n/a	n/a	n/a	1
340.824	0.4833212	CABARET	lure	n/a	n/a	n/a	1
341.307	2.016642992	CORK	long	n/a	n/a	n/a	1
343.324	0.433375373	VENGEANCE	lure	n/a	n/a	n/a	1
343.757	0.599944769	DENIM	lure	n/a	n/a	n/a	1
344.357	0.749990208	WORKINGMEN	lure	n/a	n/a	n/a	1
345.107	0.749988417	NUISANCE	lure	n/a	n/a	n/a	1
345.857	0.433327464	INNOCENCE	lure	n/a	n/a	n/a	1
346.291	0.366663816	LIBERATION	lure	n/a	n/a	n/a	1
346.657	0.399993227	BUTLER	lure	n/a	n/a	n/a	1
347.057	0.399994354	HONEYBEE	lure	n/a	n/a	n/a	1
347.457	0.5500578	FIREARM	lure	n/a	n/a	n/a	1
348.007	0.683320378	LAUGHTER	lure	n/a	n/a	n/a	1
348.691	0.499931006	PROXY	lure	n/a	n/a	n/a	1
349.191	2.016640265	RAMP	long	n/a	n/a	n/a	1
351.207	0.36666323	AFTERCARE	lure	n/a	n/a	n/a	1
351.574	0.633320489	PERJURY	lure	n/a	n/a	n/a	1
352.207	0.383331548	DEJECTION	lure	n/a	n/a	n/a	1
352.59	0.516659066	STABILITY	lure	n/a	n/a	n/a	1
353.107	0.599991916	CHAMELEON	lure	n/a	n/a	n/a	1
353.707	0.533329442	CIRCUIT	lure	n/a	n/a	n/a	1
354.24	0.483321859	DISRUPTION	lure	n/a	n/a	n/a	1
354.724	0.699992056	SHUTTLE	lure	n/a	n/a	n/a	1
355.424	0.749991344	BOUNDARY	lure	n/a	n/a	n/a	1
356.174	0.383328508	ALTERNATOR	lure	n/a	n/a	n/a	1
356.557	0.449989484	TOASTER	lure	n/a	n/a	n/a	1
357.007	0.416666617	PLANER	lure	n/a	n/a	n/a	1
357.424	1.01665243	ELDERBERRY	fruit	735	2	2	1
358.44	0.68332081	SCRAMBLER	lure	n/a	n/a	n/a	1
359.124	0.533415566	PRINCIPLE	lure	n/a	n/a	n/a	1
359.657	0.733236179	PROMPTER	lure	n/a	n/a	n/a	1
360.39	0.699990355	CROSSBOW	lure	n/a	n/a	n/a	1
361.09	0.749990898	NUT	lure	n/a	n/a	n/a	1
361.84	0.516658029	LIBATION	lure	n/a	n/a	n/a	1
362.357	0.416662424	NATIVITY	lure	n/a	n/a	n/a	1
362.774	0.583324924	DILATION	lure	n/a	n/a	n/a	1
363.357	0.633325775	DOCTRINE	lure	n/a	n/a	n/a	1
363.99	0.566661228	INVALIDITY	lure	n/a	n/a	n/a	1
364.557	0.499991244	CLAMPDOWN	lure	n/a	n/a	n/a	1
365.057	0.566656754	PROMENADE	lure	n/a	n/a	n/a	1
365.624	2.016642268	DEPOT	long	n/a	n/a	n/a	1
367.64	0.733322069	AMENITY	lure	n/a	n/a	n/a	1
368.374	0.699990375	EXPANSE	lure	n/a	n/a	n/a	1
369.074	0.416659269	ORPHANAGE	lure	n/a	n/a	n/a	1
369.49	0.383330475	WAYSIDE	lure	n/a	n/a	n/a	1
369.874	0.36666156	AUTISM	lure	n/a	n/a	n/a	1
370.24	0.749992642	CONCUSSION	lure	n/a	n/a	n/a	1
370.99	0.516652782	TECHNOLOGY	lure	n/a	n/a	n/a	1
371.507	0.39999906	THROTTLE	lure	n/a	n/a	n/a	1
371.907	0.433327328	ROMPER	lure	n/a	n/a	n/a	1
372.34	0.766657467	SHREDDER	lure	n/a	n/a	n/a	1
373.107	0.666656045	BEARD	lure	n/a	n/a	n/a	1
373.774	1.016654503	MELON	fruit	873	2	2	1
374.79	0.316661735	SPINE	lure	n/a	n/a	n/a	1
375.107	0.699991591	FUR	lure	n/a	n/a	n/a	1
375.807	0.549993388	APOLOGIST	lure	n/a	n/a	n/a	1
376.357	0.333327414	SUPREME	lure	n/a	n/a	n/a	1
376.69	0.666653438	NECKBAND	lure	n/a	n/a	n/a	1
377.357	0.633329029	CROQUET	lure	n/a	n/a	n/a	1
377.99	0.483326883	SEASCAPE	lure	n/a	n/a	n/a	1
378.473	0.499993458	MONOTONY	lure	n/a	n/a	n/a	1
378.973	0.749991033	EMPIRICIST	lure	n/a	n/a	n/a	1
379.723	0.483324478	COWBIRD	lure	n/a	n/a	n/a	1
380.207	0.749987253	COURTHOUSE	lure	n/a	n/a	n/a	1
380.957	0.599994556	ACE	lure	n/a	n/a	n/a	1
381.557	0.716658946	NEUTRALITY	lure	n/a	n/a	n/a	1
382.273	0.616660207	SOAP	short	n/a	n/a	n/a	1
382.89	0.333322401	WORKBENCH	lure	n/a	n/a	n/a	1
383.223	0.449996934	LOON	lure	n/a	n/a	n/a	1
383.673	0.56665893	OIL	lure	n/a	n/a	n/a	1
384.24	0.349996583	DISPERSAL	lure	n/a	n/a	n/a	1
384.59	0.716652879	AMMUNITION	lure	n/a	n/a	n/a	1
385.307	0.416664645	FLAW	lure	n/a	n/a	n/a	1
385.723	0.33332931	SOMETHING	lure	n/a	n/a	n/a	1
386.057	0.516655064	MUTTON	lure	n/a	n/a	n/a	1
386.573	0.733324081	POPULATION	lure	n/a	n/a	n/a	1
387.307	0.516664951	MOTIVE	lure	n/a	n/a	n/a	1
387.823	0.383327507	KIDNAPPER	lure	n/a	n/a	n/a	1
388.207	0.633325199	CHOWDER	lure	n/a	n/a	n/a	1
388.84	0.516654587	WARE	lure	n/a	n/a	n/a	1
389.357	0.599992761	WIT	lure	n/a	n/a	n/a	1
389.957	0.749990888	COALITION	lure	n/a	n/a	n/a	1
390.707	0.616658615	COAT	short	n/a	n/a	n/a	1
391.323	0.516664006	KILOWATT	lure	n/a	n/a	n/a	1
391.84	0.751480602	HARDTACK	lure	n/a	n/a	n/a	1
392.591	0.531831625	MONOPOLY	lure	n/a	n/a	n/a	1
393.123	0.316666003	NOTEPAPER	lure	n/a	n/a	n/a	1
393.44	0.466658568	DESERTION	lure	n/a	n/a	n/a	1
393.907	0.366661959	CELIBACY	lure	n/a	n/a	n/a	1
394.273	0.39999459	SWORDSMAN	lure	n/a	n/a	n/a	1
394.673	0.333390682	COERCION	lure	n/a	n/a	n/a	1
395.007	0.316599579	APTITUDE	lure	n/a	n/a	n/a	1
395.323	0.699990934	CHIPMUNK	lure	n/a	n/a	n/a	1
396.023	0.36666141	ICEHOUSE	lure	n/a	n/a	n/a	1
396.39	0.416661492	MOVIE	lure	n/a	n/a	n/a	1
396.807	0.583325937	MARKDOWN	lure	n/a	n/a	n/a	1
397.39	0.399994748	ELECTRON	lure	n/a	n/a	n/a	1
397.79	0.566658405	POPULARITY	lure	n/a	n/a	n/a	1
398.357	0.416661467	BACKSTROKE	lure	n/a	n/a	n/a	1
398.773	1.049987057	CRANBERRY	fruit	834	2	2	1
399.823	0.499992725	DEXTERITY	lure	n/a	n/a	n/a	1
400.323	0.533322605	GAVEL	lure	n/a	n/a	n/a	1
400.856	0.749992755	CALAMITY	lure	n/a	n/a	n/a	1
401.606	0.366658916	DRAY	lure	n/a	n/a	n/a	1
401.973	0.333398792	EMPLOYEE	lure	n/a	n/a	n/a	1
402.307	0.36659728	PARENTHOOD	lure	n/a	n/a	n/a	1
402.673	0.633322713	CUCUMBER	lure	n/a	n/a	n/a	1
403.306	0.316661782	SWEATSHOP	lure	n/a	n/a	n/a	1
403.623	0.566659929	WASHBOARD	lure	n/a	n/a	n/a	1
404.19	0.466725649	TURBINE	lure	n/a	n/a	n/a	1
404.657	0.466594919	MASCARA	lure	n/a	n/a	n/a	1
405.123	0.483326942	BARBARITY	lure	n/a	n/a	n/a	1
405.606	0.466660979	SURREALIST	lure	n/a	n/a	n/a	1
406.073	0.599992764	BRICKWORK	lure	n/a	n/a	n/a	1
406.673	0.334863278	RUNABOUT	lure	n/a	n/a	n/a	1
407.008	0.61512355	ENGINE	short	n/a	n/a	n/a	1
407.623	0.39998925	EXTREMISM	lure	n/a	n/a	n/a	1
408.023	0.383332156	FORTITUDE	lure	n/a	n/a	n/a	1
408.406	0.383329497	FIREBRAND	lure	n/a	n/a	n/a	1
408.79	0.583324005	ICEPICK	lure	n/a	n/a	n/a	1
409.373	0.718235319	PIETY	lure	n/a	n/a	n/a	1
410.091	0.448416536	PROBATE	lure	n/a	n/a	n/a	1
410.54	0.666719171	CHOIRBOY	lure	n/a	n/a	n/a	1
411.206	0.549932601	ASSISTANCE	lure	n/a	n/a	n/a	1
411.756	0.383322041	MALL	lure	n/a	n/a	n/a	1
412.14	0.616658578	PACKET	lure	n/a	n/a	n/a	1
412.756	0.633328898	WOODPILE	lure	n/a	n/a	n/a	1
413.39	0.58332618	RAG	lure	n/a	n/a	n/a	1
413.973	0.716657295	HARPER	lure	n/a	n/a	n/a	1
414.69	0.549992062	ANTHILL	lure	n/a	n/a	n/a	1
415.24	1.016655647	WATERMELON	fruit	775	2	2	1
416.256	0.633321269	LAMPSHADE	lure	n/a	n/a	n/a	1
416.89	0.516662078	SACHET	lure	n/a	n/a	n/a	1
417.406	0.349998596	JASPER	lure	n/a	n/a	n/a	1
417.756	0.699984125	HEMP	lure	n/a	n/a	n/a	1
418.456	0.766657732	INCREASE	lure	n/a	n/a	n/a	1
419.223	0.483322242	WOLFHOUND	lure	n/a	n/a	n/a	1
419.706	0.766661597	PEACETIME	lure	n/a	n/a	n/a	1
420.473	0.333328323	ENDOWMENT	lure	n/a	n/a	n/a	1
420.806	0.699991596	PROPELLER	lure	n/a	n/a	n/a	1
421.506	0.733322855	WISHBONE	lure	n/a	n/a	n/a	1
422.24	0.533325928	MAIZE	lure	n/a	n/a	n/a	1
422.773	0.333325802	CLIFF	lure	n/a	n/a	n/a	1
423.106	2.01664535	PUMP	long	n/a	n/a	n/a	1
425.123	0.616655037	BEDSIDE	lure	n/a	n/a	n/a	1
425.739	0.633327075	NUTHOUSE	lure	n/a	n/a	n/a	1
426.373	0.666655828	APATHY	lure	n/a	n/a	n/a	1
427.039	0.516660459	SLINGSHOT	lure	n/a	n/a	n/a	1
427.556	0.433328151	WASP	lure	n/a	n/a	n/a	1
427.989	0.716656166	DUDE	lure	n/a	n/a	n/a	1
428.706	0.666657121	SPECIALITY	lure	n/a	n/a	n/a	1
429.373	0.683325485	MUSIC	lure	n/a	n/a	n/a	1
430.056	0.649992903	FREEBOARD	lure	n/a	n/a	n/a	1
430.706	0.533321168	FEAT	lure	n/a	n/a	n/a	1
431.239	2.01664199	COAL	long	n/a	n/a	n/a	1
433.256	0.73332448	DRONE	lure	n/a	n/a	n/a	1
433.989	0.433328511	SLIPSTREAM	lure	n/a	n/a	n/a	1
434.423	0.383321861	RELATION	lure	n/a	n/a	n/a	1
434.806	0.433333008	ERASURE	lure	n/a	n/a	n/a	1
435.239	0.583324024	PILL	lure	n/a	n/a	n/a	1
435.823	0.53332789	REVIVAL	lure	n/a	n/a	n/a	1
436.356	0.349994158	PERSONAGE	lure	n/a	n/a	n/a	1
436.706	0.753306572	CITIZEN	lure	n/a	n/a	n/a	1
437.459	0.513343916	VOUCHER	lure	n/a	n/a	n/a	1
437.973	0.466659909	WORKDAY	lure	n/a	n/a	n/a	1
438.439	0.499991793	TOXICITY	lure	n/a	n/a	n/a	1
438.939	0.716654984	TRUCE	lure	n/a	n/a	n/a	1
439.656	0.616661079	LAUNDRY	short	n/a	n/a	n/a	1
440.273	0.699988763	DISSENTER	lure	n/a	n/a	n/a	1
440.973	0.783326572	GUEST	lure	n/a	n/a	n/a	1
441.756	0.449993516	HALL	lure	n/a	n/a	n/a	1
442.206	0.766656193	CHIVALRY	lure	n/a	n/a	n/a	1
442.973	0.583325142	DEFICIT	lure	n/a	n/a	n/a	1
443.556	0.500042124	MODERNITY	lure	n/a	n/a	n/a	1
444.056	0.566610709	MORTICIAN	lure	n/a	n/a	n/a	1
444.623	0.749988364	SOURDOUGH	lure	n/a	n/a	n/a	1
445.373	0.566656448	CREWMEN	lure	n/a	n/a	n/a	1
445.939	0.583329699	DUNE	lure	n/a	n/a	n/a	1
446.523	0.699989816	EYELINER	lure	n/a	n/a	n/a	1
447.223	0.749989961	RECOURSE	lure	n/a	n/a	n/a	1
447.973	2.016641137	FLAG	long	n/a	n/a	n/a	1
449.989	0.65004886	FUSION	lure	n/a	n/a	n/a	1
450.639	0.683261721	SLIVER	lure	n/a	n/a	n/a	1
451.322	0.683327229	FLYER	lure	n/a	n/a	n/a	1
452.006	0.433327523	FIGURINE	lure	n/a	n/a	n/a	1
452.439	0.36666329	WOODCUTTER	lure	n/a	n/a	n/a	1
452.806	0.583324874	FEEDER	lure	n/a	n/a	n/a	1
453.389	0.516661141	DOGMA	lure	n/a	n/a	n/a	1
453.906	0.550053512	PULLBACK	lure	n/a	n/a	n/a	1
454.456	0.366599926	TOOTHPICK	lure	n/a	n/a	n/a	1
454.822	0.333328933	MAYHEM	lure	n/a	n/a	n/a	1
455.156	0.483326462	HARVESTER	lure	n/a	n/a	n/a	1
455.639	0.349995689	EXAM	lure	n/a	n/a	n/a	1
455.989	0.449993165	VIDEOTAPE	lure	n/a	n/a	n/a	1
456.439	0.566660032	GEOMETRY	lure	n/a	n/a	n/a	1
457.006	0.69998715	FLORA	lure	n/a	n/a	n/a	1
457.706	0.43332829	CONFECTION	lure	n/a	n/a	n/a	1
458.139	0.750053942	COURTROOM	lure	n/a	n/a	n/a	1
458.889	0.76660108	SAVIOR	lure	n/a	n/a	n/a	1
459.656	0.666651268	STEPLADDER	lure	n/a	n/a	n/a	1
460.322	0.366661779	DETERGENT	lure	n/a	n/a	n/a	1
460.689	0.350057027	DRAGON	lure	n/a	n/a	n/a	1
461.039	0.583260952	TUMBLER	lure	n/a	n/a	n/a	1
461.622	0.583328846	FOOTPRINT	lure	n/a	n/a	n/a	1
462.206	0.649992063	SPEARMINT	lure	n/a	n/a	n/a	1
462.856	0.733322357	BOMBSHELL	lure	n/a	n/a	n/a	1
463.589	0.483326292	INFINITIVE	lure	n/a	n/a	n/a	1
464.072	0.533380883	ANARCHIST	lure	n/a	n/a	n/a	1
464.606	0.366605947	THRIFT	lure	n/a	n/a	n/a	1
464.972	n/a	ALLEGATION	lure	n/a	n/a	n/a	1