onset	duration	stim	cond	RT	resp	cresp	acc
4.038	0.449994206	PROPHECY	lure	n/a	n/a	n/a	1
4.488	0.616697084	STYLE	lure	n/a	n/a	n/a	1
5.104	0.483285717	FOREHEAD	lure	n/a	n/a	n/a	1
5.588	0.44999479	SMUDGE	lure	n/a	n/a	n/a	1
6.038	0.433325665	MOLEHILL	lure	n/a	n/a	n/a	1
6.471	0.399994665	MYSTERY	lure	n/a	n/a	n/a	1
6.871	0.466662383	CARTILAGE	lure	n/a	n/a	n/a	1
7.338	0.533326073	DEACON	lure	n/a	n/a	n/a	1
7.871	0.616658623	PELLET	short	n/a	n/a	n/a	1
8.488	0.68338349	BAGGAGE	lure	n/a	n/a	n/a	1
9.171	0.699930506	DECENCY	lure	n/a	n/a	n/a	1
9.871	0.383325932	DAISY	lure	n/a	n/a	n/a	1
10.254	0.51666215	KITTEN	lure	n/a	n/a	n/a	1
10.771	0.516697351	RECURRENCE	lure	n/a	n/a	n/a	1
11.288	0.649952167	TECHNICIAN	lure	n/a	n/a	n/a	1
11.938	0.63332401	APPRAISAL	lure	n/a	n/a	n/a	1
12.571	0.400247973	YARN	lure	n/a	n/a	n/a	1
12.971	0.549741477	DISHARMONY	lure	n/a	n/a	n/a	1
13.521	0.399994771	LATECOMER	lure	n/a	n/a	n/a	1
13.921	0.399994467	RIVERBED	lure	n/a	n/a	n/a	1
14.321	0.633325123	STREAKER	lure	n/a	n/a	n/a	1
14.954	0.699987066	HOVERCRAFT	lure	n/a	n/a	n/a	1
15.654	0.516660934	NONE	lure	n/a	n/a	n/a	1
16.171	0.61666043	JAIL	short	n/a	n/a	n/a	1
16.788	0.733323918	BUNNY	lure	n/a	n/a	n/a	1
17.521	0.416660738	TOLERANCE	lure	n/a	n/a	n/a	1
17.938	0.583325425	TRANSPLANT	lure	n/a	n/a	n/a	1
18.521	0.416663903	DILUTION	lure	n/a	n/a	n/a	1
18.938	0.751293164	WINDJAMMER	lure	n/a	n/a	n/a	1
19.689	0.532020148	AUNTIE	lure	n/a	n/a	n/a	1
20.221	0.616655829	WOODWIND	lure	n/a	n/a	n/a	1
20.838	0.516662997	PICKUP	lure	n/a	n/a	n/a	1
21.354	0.666657131	MOMENTUM	lure	n/a	n/a	n/a	1
22.021	0.535346955	MAINSPRING	lure	n/a	n/a	n/a	1
22.556	0.564638278	MONSTER	lure	n/a	n/a	n/a	1
23.121	0.499990148	GUITARIST	lure	n/a	n/a	n/a	1
23.621	0.516659425	BRILLIANCE	lure	n/a	n/a	n/a	1
24.137	0.516664147	LIBERALISM	lure	n/a	n/a	n/a	1
24.654	2.016639966	PUTTY	long	n/a	n/a	n/a	1
26.671	0.533376119	GLYCERINE	lure	n/a	n/a	n/a	1
27.204	0.749936013	PATRIOTISM	lure	n/a	n/a	n/a	1
27.954	0.516662755	GROUNDER	lure	n/a	n/a	n/a	1
28.471	0.316661958	EASEL	lure	n/a	n/a	n/a	1
28.787	0.499991278	RECITAL	lure	n/a	n/a	n/a	1
29.287	0.466662815	PARAGRAPH	lure	n/a	n/a	n/a	1
29.754	0.733323427	RINGMASTER	lure	n/a	n/a	n/a	1
30.487	0.51665942	CRAB	lure	n/a	n/a	n/a	1
31.004	0.616696713	SHRINE	lure	n/a	n/a	n/a	1
31.621	0.599953114	LONGSHOT	lure	n/a	n/a	n/a	1
32.221	0.716658234	STINKER	lure	n/a	n/a	n/a	1
32.937	0.533325738	RELIGION	lure	n/a	n/a	n/a	1
33.471	2.016635735	PARADE	long	n/a	n/a	n/a	1
35.487	0.484247542	BEDPOST	lure	n/a	n/a	n/a	1
35.972	0.365744941	PERTINENCE	lure	n/a	n/a	n/a	1
36.337	0.566710686	STANCE	lure	n/a	n/a	n/a	1
36.904	0.56660785	GULLY	lure	n/a	n/a	n/a	1
37.471	0.399993813	GENE	lure	n/a	n/a	n/a	1
37.871	0.73332336	DUCKLING	lure	n/a	n/a	n/a	1
38.604	0.519948078	FANLIGHT	lure	n/a	n/a	n/a	1
39.124	0.496705094	AEROSOL	lure	n/a	n/a	n/a	1
39.621	0.733377943	APARTHEID	lure	n/a	n/a	n/a	1
40.354	0.549938035	COWARD	lure	n/a	n/a	n/a	1
40.904	0.499993157	STERNUM	lure	n/a	n/a	n/a	1
41.404	0.604322239	GLOBE	lure	n/a	n/a	n/a	1
42.008	2.012307674	COAL	long	n/a	n/a	n/a	1
44.021	0.633323632	FLATTOP	lure	n/a	n/a	n/a	1
44.654	0.44999708	CHILDHOOD	lure	n/a	n/a	n/a	1
45.104	0.549988948	OATH	lure	n/a	n/a	n/a	1
45.654	0.366665332	OPULENCE	lure	n/a	n/a	n/a	1
46.021	0.583325899	SOAPSTONE	lure	n/a	n/a	n/a	1
46.604	0.36666074	STOREROOM	lure	n/a	n/a	n/a	1
46.971	0.633324727	OLIGARCHY	lure	n/a	n/a	n/a	1
47.604	0.686087396	INCIDENCE	lure	n/a	n/a	n/a	1
48.29	0.513895311	PEEPER	lure	n/a	n/a	n/a	1
48.804	0.449993963	RINGER	lure	n/a	n/a	n/a	1
49.254	0.416664027	HEALTH	lure	n/a	n/a	n/a	1
49.67	0.499987949	MEDIA	lure	n/a	n/a	n/a	1
50.17	2.016647912	RAMP	long	n/a	n/a	n/a	1
52.187	0.533319233	GIRAFFE	lure	n/a	n/a	n/a	1
52.72	0.683327383	JEEP	lure	n/a	n/a	n/a	1
53.404	0.566660343	VIOLA	lure	n/a	n/a	n/a	1
53.97	0.550032428	NUTCASE	lure	n/a	n/a	n/a	1
54.52	0.383287484	FEDERATION	lure	n/a	n/a	n/a	1
54.904	0.466712582	BRAWN	lure	n/a	n/a	n/a	1
55.37	0.435788919	ORDEAL	lure	n/a	n/a	n/a	1
55.806	0.630807636	WOODSMAN	lure	n/a	n/a	n/a	1
56.437	0.416664222	PARTAKER	lure	n/a	n/a	n/a	1
56.854	0.616695804	TAB	lure	n/a	n/a	n/a	1
57.47	0.399958296	INCENTIVE	lure	n/a	n/a	n/a	1
57.87	0.466656027	PILLOWCASE	lure	n/a	n/a	n/a	1
58.337	1.016657751	PEAR	fruit	n/a	n/a	2	0
59.354	0.71665528	GENTILE	lure	12	2	n/a	0
60.07	0.366658608	BEAST	lure	n/a	n/a	n/a	1
60.437	0.483328371	ATTACHMENT	lure	n/a	n/a	n/a	1
60.92	0.333327232	SUGARLOAF	lure	n/a	n/a	n/a	1
61.254	0.633327219	REVERENCE	lure	n/a	n/a	n/a	1
61.887	0.533328837	GENDER	lure	n/a	n/a	n/a	1
62.42	0.449992958	GARNET	lure	n/a	n/a	n/a	1
62.87	0.56665679	BYLAW	lure	n/a	n/a	n/a	1
63.437	0.399995857	SCUBA	lure	n/a	n/a	n/a	1
63.837	0.733325244	ASSAILANT	lure	n/a	n/a	n/a	1
64.57	0.683326486	AMNESIA	lure	n/a	n/a	n/a	1
65.254	0.366657696	MORSEL	lure	n/a	n/a	n/a	1
65.62	0.71665632	OUTCAST	lure	n/a	n/a	n/a	1
66.337	0.566659408	LOCALE	lure	n/a	n/a	n/a	1
66.904	0.616657297	MAGAZINE	short	n/a	n/a	n/a	1
67.52	0.433325875	FRIENDSHIP	lure	n/a	n/a	n/a	1
67.954	0.349999094	SHOWGIRL	lure	n/a	n/a	n/a	1
68.304	0.733320981	TRAGEDY	lure	n/a	n/a	n/a	1
69.037	0.51666167	UTTERANCE	lure	n/a	n/a	n/a	1
69.554	0.549993614	SMOKER	lure	n/a	n/a	n/a	1
70.104	0.333329068	SQUIRE	lure	n/a	n/a	n/a	1
70.437	0.649987083	ACRONYM	lure	n/a	n/a	n/a	1
71.087	0.716658225	PHYSICIST	lure	n/a	n/a	n/a	1
71.804	0.416661203	LORE	lure	n/a	n/a	n/a	1
72.22	0.33333177	INGREDIENT	lure	n/a	n/a	n/a	1
72.553	0.633321859	CONJUNCT	lure	n/a	n/a	n/a	1
73.187	0.399992912	CHARISMA	lure	n/a	n/a	n/a	1
73.587	0.533330436	BELLBOY	lure	n/a	n/a	n/a	1
74.12	0.38332735	INJUNCTION	lure	n/a	n/a	n/a	1
74.503	0.699997022	INHABITANT	lure	n/a	n/a	n/a	1
75.203	0.33332105	CAT	lure	n/a	n/a	n/a	1
75.537	1.016651265	WATERMELON	fruit	669	2	2	1
76.553	0.383331999	DEITY	lure	n/a	n/a	n/a	1
76.937	0.333325431	TECHNIQUE	lure	n/a	n/a	n/a	1
77.27	0.349998488	HUSSY	lure	n/a	n/a	n/a	1
77.62	0.699988827	GROWTH	lure	n/a	n/a	n/a	1
78.32	0.69999338	STARTER	lure	n/a	n/a	n/a	1
79.02	0.749989163	BOATHOUSE	lure	n/a	n/a	n/a	1
79.77	0.483326315	BRICKYARD	lure	n/a	n/a	n/a	1
80.253	0.5833229	COLLAGEN	lure	n/a	n/a	n/a	1
80.837	0.349994753	TELETYPE	lure	n/a	n/a	n/a	1
81.187	0.566665173	RETHINK	lure	n/a	n/a	n/a	1
81.753	0.599992821	PSEUDONYM	lure	n/a	n/a	n/a	1
82.353	0.683317329	SONAR	lure	n/a	n/a	n/a	1
83.037	0.466666695	STYLIST	lure	n/a	n/a	n/a	1
83.503	0.699984527	BALLOONIST	lure	n/a	n/a	n/a	1
84.203	1.016656047	PEACH	fruit	843	2	2	1
85.22	0.416657552	MUSTACHE	lure	n/a	n/a	n/a	1
85.637	0.666662803	HAILSTONE	lure	n/a	n/a	n/a	1
86.303	0.366658613	JOYSTICK	lure	n/a	n/a	n/a	1
86.67	0.366714188	STEAK	lure	n/a	n/a	n/a	1
87.037	0.599939712	LIBERTY	lure	n/a	n/a	n/a	1
87.637	0.333330289	BARON	lure	n/a	n/a	n/a	1
87.97	0.600046944	THERMOSTAT	lure	n/a	n/a	n/a	1
88.57	0.399942856	INSERTION	lure	n/a	n/a	n/a	1
88.97	0.74998906	ASCENDANCY	lure	n/a	n/a	n/a	1
89.72	0.450045538	OUTBREAK	lure	n/a	n/a	n/a	1
90.17	0.699936684	APARTMENT	lure	n/a	n/a	n/a	1
90.87	0.583326511	AROMA	lure	n/a	n/a	n/a	1
91.453	0.550047445	PATRIARCHY	lure	n/a	n/a	n/a	1
92.003	0.618577747	AMMO	lure	n/a	n/a	n/a	1
92.622	2.014660836	CORK	long	n/a	n/a	n/a	1
94.637	0.699993984	MERINGUE	lure	n/a	n/a	n/a	1
95.337	0.350688622	BISQUE	lure	n/a	n/a	n/a	1
95.687	0.615962404	WITCHCRAFT	lure	n/a	n/a	n/a	1
96.303	0.599992702	SIDEWINDER	lure	n/a	n/a	n/a	1
96.903	0.616657134	NEWSCAST	lure	n/a	n/a	n/a	1
97.52	0.366665933	DRUDGERY	lure	n/a	n/a	n/a	1
97.886	0.766655449	MONARCHY	lure	n/a	n/a	n/a	1
98.653	0.616659663	WASTEWATER	lure	n/a	n/a	n/a	1
99.27	0.633326364	ADVERTISER	lure	n/a	n/a	n/a	1
99.903	0.733317201	OCCUPANCY	lure	n/a	n/a	n/a	1
100.636	0.5999924	BRICKLAYER	lure	n/a	n/a	n/a	1
101.236	0.616661888	SUDS	short	n/a	n/a	n/a	1
101.853	0.449994737	LOBE	lure	n/a	n/a	n/a	1
102.303	0.416660093	FRIDGE	lure	n/a	n/a	n/a	1
102.72	0.566656564	BLOWBACK	lure	n/a	n/a	n/a	1
103.286	0.48333223	GATEHOUSE	lure	n/a	n/a	n/a	1
103.77	0.449991055	RHINESTONE	lure	n/a	n/a	n/a	1
104.22	0.33332764	NECKLINE	lure	n/a	n/a	n/a	1
104.553	0.49999478	INTERLUDE	lure	n/a	n/a	n/a	1
105.053	0.449991215	STAMINA	lure	n/a	n/a	n/a	1
105.503	0.366661097	JET	lure	n/a	n/a	n/a	1
105.87	0.349996303	MAGNESIA	lure	n/a	n/a	n/a	1
106.22	0.733327986	SUNSTROKE	lure	n/a	n/a	n/a	1
106.953	0.699987296	CHOCOLATE	lure	n/a	n/a	n/a	1
107.653	0.533330322	RIVERBANK	lure	n/a	n/a	n/a	1
108.186	0.73331797	ARCHETYPE	lure	n/a	n/a	n/a	1
108.92	0.666706783	ADJECTIVE	lure	n/a	n/a	n/a	1
109.586	1.0166492	NECTARINE	fruit	884	2	2	1
110.603	0.566616932	TRESPASSER	lure	n/a	n/a	n/a	1
111.17	0.566658466	SCROOGE	lure	n/a	n/a	n/a	1
111.736	0.466661413	SCRUBBER	lure	n/a	n/a	n/a	1
112.203	0.766655281	CHIC	lure	n/a	n/a	n/a	1
112.97	0.366661999	WICKET	lure	n/a	n/a	n/a	1
113.336	0.599994202	FIRELIGHT	lure	n/a	n/a	n/a	1
113.936	0.666663451	LAVA	lure	n/a	n/a	n/a	1
114.603	0.566652526	REFERENT	lure	n/a	n/a	n/a	1
115.17	0.499993531	LARYNX	lure	n/a	n/a	n/a	1
115.67	0.449990229	DOMINO	lure	n/a	n/a	n/a	1
116.12	0.516663904	HERDSMAN	lure	n/a	n/a	n/a	1
116.636	0.59999237	ROD	lure	n/a	n/a	n/a	1
117.236	0.549986805	SENDER	lure	n/a	n/a	n/a	1
117.786	2.016641186	FLAG	long	n/a	n/a	n/a	1
119.803	0.599991107	SOCIALITY	lure	n/a	n/a	n/a	1
120.403	0.383328112	DISUNION	lure	n/a	n/a	n/a	1
120.786	0.499998686	POSTER	lure	n/a	n/a	n/a	1
121.286	0.349991819	BARRACK	lure	n/a	n/a	n/a	1
121.636	0.533326434	GREMLIN	lure	n/a	n/a	n/a	1
122.169	0.499992361	AMP	lure	n/a	n/a	n/a	1
122.669	0.599995709	BREATH	lure	n/a	n/a	n/a	1
123.269	0.41665601	AUTOMOBILE	lure	n/a	n/a	n/a	1
123.686	0.633326909	MILLIMETER	lure	n/a	n/a	n/a	1
124.319	0.533324813	BARRAGE	lure	n/a	n/a	n/a	1
124.853	0.383373279	TREMOR	lure	n/a	n/a	n/a	1
125.236	0.749945002	POLYGON	lure	n/a	n/a	n/a	1
125.986	0.61666097	COAT	short	n/a	n/a	n/a	1
126.603	0.55005717	ALMANAC	lure	n/a	n/a	n/a	1
127.153	0.583322154	PATELLA	lure	n/a	n/a	n/a	1
127.736	0.599926408	DALE	lure	n/a	n/a	n/a	1
128.336	0.449998509	COOKY	lure	n/a	n/a	n/a	1
128.786	0.733321361	JEWELRY	lure	n/a	n/a	n/a	1
129.519	0.633325543	FELLOWSHIP	lure	n/a	n/a	n/a	1
130.153	0.433385184	FARMYARD	lure	n/a	n/a	n/a	1
130.586	0.633267386	PILLION	lure	n/a	n/a	n/a	1
131.219	0.516715075	AUTOPSY	lure	n/a	n/a	n/a	1
131.736	0.416664761	BELIEF	lure	n/a	n/a	n/a	1
132.153	0.566601245	FLOWERPOT	lure	n/a	n/a	n/a	1
132.719	0.783318524	PROTEIN	lure	n/a	n/a	n/a	1
133.503	0.583328552	TORSO	lure	n/a	n/a	n/a	1
134.086	0.466657621	FOOTLIGHT	lure	n/a	n/a	n/a	1
134.553	2.016646164	DEPOT	long	n/a	n/a	n/a	1
136.569	0.566654021	COUPLET	lure	n/a	n/a	n/a	1
137.136	0.399998741	FLUENCY	lure	n/a	n/a	n/a	1
137.536	0.499987515	CONSTABLE	lure	n/a	n/a	n/a	1
138.036	0.499999741	HENCHMEN	lure	n/a	n/a	n/a	1
138.536	0.433376393	PLAYSUIT	lure	n/a	n/a	n/a	1
138.969	0.666607291	CORNFIELD	lure	n/a	n/a	n/a	1
139.636	0.616657931	OCCUPANT	lure	n/a	n/a	n/a	1
140.253	0.4166568	JAWBONE	lure	n/a	n/a	n/a	1
140.669	0.699990641	FASTENER	lure	n/a	n/a	n/a	1
141.369	0.349996723	EXPRESSWAY	lure	n/a	n/a	n/a	1
141.719	0.349994727	MELODY	lure	n/a	n/a	n/a	1
142.069	0.766661595	ESCALATION	lure	n/a	n/a	n/a	1
142.836	0.616651341	FLEET	short	n/a	n/a	n/a	1
143.453	0.319450294	BLUEJAY	lure	n/a	n/a	n/a	1
143.772	0.43054156	PLANTATION	lure	n/a	n/a	n/a	1
144.203	0.633323648	BETRAYER	lure	n/a	n/a	n/a	1
144.836	0.533329428	PARADISE	lure	n/a	n/a	n/a	1
145.369	0.416659891	RADIOLOGY	lure	n/a	n/a	n/a	1
145.786	0.333331671	PENINSULA	lure	n/a	n/a	n/a	1
146.119	0.499990552	MAST	lure	n/a	n/a	n/a	1
146.619	0.383329986	CHATTERBOX	lure	n/a	n/a	n/a	1
147.003	0.383331217	CLERIC	lure	n/a	n/a	n/a	1
147.386	0.466659398	THEATRE	lure	n/a	n/a	n/a	1
147.852	0.549990196	CRUTCH	lure	n/a	n/a	n/a	1
148.402	0.4833294	FIDELITY	lure	n/a	n/a	n/a	1
148.886	0.38332862	SEMESTER	lure	n/a	n/a	n/a	1
149.269	0.733318678	SIXPENCE	lure	n/a	n/a	n/a	1
150.002	0.316663193	RAVINE	lure	n/a	n/a	n/a	1
150.319	0.566657592	GUESTHOUSE	lure	n/a	n/a	n/a	1
150.886	0.616660312	SOAP	short	n/a	n/a	n/a	1
151.502	0.666661849	TOPOGRAPHY	lure	n/a	n/a	n/a	1
152.169	0.366656816	WHISKER	lure	n/a	n/a	n/a	1
152.536	0.734591584	CABOOSE	lure	n/a	n/a	n/a	1
153.27	0.648725262	TROTTER	lure	n/a	n/a	n/a	1
153.919	0.333324726	LEFTHANDER	lure	n/a	n/a	n/a	1
154.252	0.566659134	MILLENNIUM	lure	n/a	n/a	n/a	1
154.819	0.516664494	WELDER	lure	n/a	n/a	n/a	1
155.336	0.549987973	HESITANCY	lure	n/a	n/a	n/a	1
155.886	0.716658943	DOME	lure	n/a	n/a	n/a	1
156.602	0.733328862	BYWAY	lure	n/a	n/a	n/a	1
157.336	0.449987154	SUNBEAM	lure	n/a	n/a	n/a	1
157.786	0.366667708	SOFTY	lure	n/a	n/a	n/a	1
158.152	0.516654196	PISTACHIO	lure	n/a	n/a	n/a	1
158.669	0.433333703	BLOTCH	lure	n/a	n/a	n/a	1
159.102	0.616652731	LAUNDRY	short	n/a	n/a	n/a	1
159.719	0.666657578	BURGLAR	lure	n/a	n/a	n/a	1
160.386	0.433330835	PUDDING	lure	n/a	n/a	n/a	1
160.819	0.599987276	FATHERLAND	lure	n/a	n/a	n/a	1
161.419	0.383328088	GASP	lure	n/a	n/a	n/a	1
161.802	0.53332819	HORDE	lure	n/a	n/a	n/a	1
162.336	0.399994057	SUGGESTION	lure	n/a	n/a	n/a	1
162.736	0.504311231	CARVER	lure	n/a	n/a	n/a	1
163.24	0.429015064	MONEYMAKER	lure	n/a	n/a	n/a	1
163.669	0.516654101	LEGALISM	lure	n/a	n/a	n/a	1
164.186	0.516658691	HERBIVORE	lure	n/a	n/a	n/a	1
164.702	0.566659262	BARROW	lure	n/a	n/a	n/a	1
165.269	0.633329136	WILDCAT	lure	n/a	n/a	n/a	1
165.902	0.702039988	NONSMOKER	lure	n/a	n/a	n/a	1
166.604	0.314609696	MONTH	lure	n/a	n/a	n/a	1
166.919	1.016654326	BLACKBERRY	fruit	767	2	2	1
167.936	0.46666458	FOOTHOLD	lure	n/a	n/a	n/a	1
168.402	0.699985017	ACCOMPLICE	lure	n/a	n/a	n/a	1
169.102	0.466666455	CLOVER	lure	n/a	n/a	n/a	1
169.569	0.483320974	PRODUCT	lure	n/a	n/a	n/a	1
170.052	0.59999181	FLOODLIGHT	lure	n/a	n/a	n/a	1
170.652	0.599991601	NEWSCASTER	lure	n/a	n/a	n/a	1
171.252	0.449997672	GOSPEL	lure	n/a	n/a	n/a	1
171.702	0.766656632	CLASSMATE	lure	n/a	n/a	n/a	1
172.469	0.733320309	BEHALF	lure	n/a	n/a	n/a	1
173.202	0.416660876	LINT	lure	n/a	n/a	n/a	1
173.619	0.633323583	AUTOLOADER	lure	n/a	n/a	n/a	1
174.252	0.649991302	STREETCAR	lure	n/a	n/a	n/a	1
174.902	0.733328545	TREADMILL	lure	n/a	n/a	n/a	1
175.635	2.016639952	GIFT	long	n/a	n/a	n/a	1
177.652	0.53332487	HOSTAGE	lure	n/a	n/a	n/a	1
178.185	0.54999151	EXPEDIENCE	lure	n/a	n/a	n/a	1
178.735	0.783324057	MARIONETTE	lure	n/a	n/a	n/a	1
179.519	0.699987583	VITAMIN	lure	n/a	n/a	n/a	1
180.219	0.649991407	BOOKIE	lure	n/a	n/a	n/a	1
180.869	0.599992229	NOON	lure	n/a	n/a	n/a	1
181.469	0.349999042	OPTICIAN	lure	n/a	n/a	n/a	1
181.819	0.733318463	DOUGH	lure	n/a	n/a	n/a	1
182.552	0.433327202	WIFE	lure	n/a	n/a	n/a	1
182.985	0.583326457	SOLILOQUY	lure	n/a	n/a	n/a	1
183.569	0.433328129	BATON	lure	n/a	n/a	n/a	1
184.002	2.016644985	PUMP	long	n/a	n/a	n/a	1
186.019	0.649989521	RATION	lure	n/a	n/a	n/a	1
186.669	0.499989508	MILITANCY	lure	n/a	n/a	n/a	1
187.169	0.666657872	LAXATIVE	lure	n/a	n/a	n/a	1
187.835	0.349997654	DUSK	lure	n/a	n/a	n/a	1
188.185	0.499994589	ORGANIZER	lure	n/a	n/a	n/a	1
188.685	0.366662835	SHAKEDOWN	lure	n/a	n/a	n/a	1
189.052	0.416655224	SNAIL	lure	n/a	n/a	n/a	1
189.469	0.366661644	ANTIBODY	lure	n/a	n/a	n/a	1
189.835	0.433331433	PORTAL	lure	n/a	n/a	n/a	1
190.269	0.499994545	FOODSTUFF	lure	n/a	n/a	n/a	1
190.769	0.716654778	GRATUITY	lure	n/a	n/a	n/a	1
191.485	0.469772865	CONDUCTOR	lure	n/a	n/a	n/a	1
191.955	0.59687771	VEGETABLE	lure	n/a	n/a	n/a	1
192.552	1.016655609	PINEAPPLE	fruit	766	2	2	1
193.569	0.716656782	WOE	lure	n/a	n/a	n/a	1
194.285	0.566658479	LUNG	lure	n/a	n/a	n/a	1
194.852	0.683326	CUTBACK	lure	n/a	n/a	n/a	1
195.535	0.716653804	COMPLEXION	lure	n/a	n/a	n/a	1
196.252	0.366664061	SUMMATION	lure	n/a	n/a	n/a	1
196.619	0.383328189	CULTIST	lure	n/a	n/a	n/a	1
197.002	0.649992023	POSSESSION	lure	n/a	n/a	n/a	1
197.652	0.649991427	STOPPAGE	lure	n/a	n/a	n/a	1
198.302	0.733320259	MILKMAID	lure	n/a	n/a	n/a	1
199.035	0.666656363	DEFLATION	lure	n/a	n/a	n/a	1
199.702	0.449998957	BRAINWAVE	lure	n/a	n/a	n/a	1
200.152	0.333323309	ISLAND	lure	n/a	n/a	n/a	1
200.485	0.616663984	CHART	short	n/a	n/a	n/a	1
201.102	0.616657555	SCRIPTURE	lure	n/a	n/a	n/a	1
201.718	0.366662028	LETTUCE	lure	n/a	n/a	n/a	1
202.085	0.733324196	DYNASTY	lure	n/a	n/a	n/a	1
202.818	0.733321583	BREADLINE	lure	n/a	n/a	n/a	1
203.552	0.56665766	RELEVANCE	lure	n/a	n/a	n/a	1
204.118	0.416662738	AMPUTATION	lure	n/a	n/a	n/a	1
204.535	0.566658456	CENSORSHIP	lure	n/a	n/a	n/a	1
205.102	0.499990502	BUSTER	lure	n/a	n/a	n/a	1
205.602	0.433327384	CUBISM	lure	n/a	n/a	n/a	1
206.035	0.499997824	CADENCE	lure	n/a	n/a	n/a	1
206.535	0.566655552	STOCKROOM	lure	n/a	n/a	n/a	1
207.102	0.616662461	CATTLE	lure	n/a	n/a	n/a	1
207.718	0.566660108	INCLUSION	lure	n/a	n/a	n/a	1
208.285	0.799986764	DOGWOOD	lure	n/a	n/a	n/a	1
209.085	0.616661643	ENGINE	short	n/a	n/a	n/a	1
209.702	0.383324878	FORE	lure	n/a	n/a	n/a	1
210.085	0.733320019	EGOTISM	lure	n/a	n/a	n/a	1
210.818	0.666659106	REVENGE	lure	n/a	n/a	n/a	1
211.485	0.716657121	THROWER	lure	n/a	n/a	n/a	1
212.202	0.499994863	IMAGERY	lure	n/a	n/a	n/a	1
212.702	0.383328049	DEMOTION	lure	n/a	n/a	n/a	1
213.085	0.316659586	LAIR	lure	n/a	n/a	n/a	1
213.402	0.733325385	LUXURY	lure	n/a	n/a	n/a	1
214.135	0.783325419	CLUMP	lure	n/a	n/a	n/a	1
214.918	0.718844278	CUMULATION	lure	n/a	n/a	n/a	1
215.637	0.481141781	BONGO	lure	n/a	n/a	n/a	1
216.118	0.549989961	LITERACY	lure	n/a	n/a	n/a	1
216.668	0.766658319	ROCKETRY	lure	n/a	n/a	n/a	1
217.435	0.366657512	TERRYCLOTH	lure	n/a	n/a	n/a	1
217.802	2.016642237	EARTHQUAKE	long	n/a	n/a	n/a	1
219.818	0.383328384	INDENT	lure	n/a	n/a	n/a	1
220.202	0.733324938	MOTORBOAT	lure	n/a	n/a	n/a	1
220.935	0.583325229	MAINLAND	lure	n/a	n/a	n/a	1
221.518	0.583319746	NOMAD	lure	n/a	n/a	n/a	1
222.101	0.616708507	WIDTH	lure	n/a	n/a	n/a	1
222.718	0.333279637	PLAYTHING	lure	n/a	n/a	n/a	1
223.051	0.749994869	NIGHTSHIRT	lure	n/a	n/a	n/a	1
223.801	0.716652732	REDWOOD	lure	n/a	n/a	n/a	1
224.518	0.700040916	DETRACTION	lure	n/a	n/a	n/a	1
225.218	0.483278251	MANPOWER	lure	n/a	n/a	n/a	1
225.701	0.62125385	INQUISITOR	lure	n/a	n/a	n/a	1
226.323	0.47873504	LITER	lure	n/a	n/a	n/a	1
226.801	n/a	FLAX	lure	n/a	n/a	n/a	1
238.022	0.695535816	VACCINE	lure	n/a	n/a	n/a	1
238.718	0.733322224	DILEMMA	lure	n/a	n/a	n/a	1
239.451	0.583325796	CRITTER	lure	n/a	n/a	n/a	1
240.035	0.699991073	STALAGMITE	lure	n/a	n/a	n/a	1
240.735	0.349995302	BRIDEGROOM	lure	n/a	n/a	n/a	1
241.085	0.383324494	MOTEL	lure	n/a	n/a	n/a	1
241.468	0.616661345	PELLET	short	n/a	n/a	n/a	1
242.085	0.599992009	GOLDMINE	lure	n/a	n/a	n/a	1
242.685	0.733323874	SONG	lure	n/a	n/a	n/a	1
243.418	0.366662843	EARACHE	lure	n/a	n/a	n/a	1
243.785	0.666657208	GAGGLE	lure	n/a	n/a	n/a	1
244.451	0.649987417	SCRUFF	lure	n/a	n/a	n/a	1
245.101	0.533329943	PEBBLE	lure	n/a	n/a	n/a	1
245.635	0.616657595	GEEZER	lure	n/a	n/a	n/a	1
246.251	0.649988242	SUPREMACY	lure	n/a	n/a	n/a	1
246.901	0.683429547	MONOLOGIST	lure	n/a	n/a	n/a	1
247.585	0.599889478	VIBRATION	lure	n/a	n/a	n/a	1
248.184	0.499993297	MAIDENHEAD	lure	n/a	n/a	n/a	1
248.684	0.383329121	LEUKEMIA	lure	n/a	n/a	n/a	1
249.068	0.433326632	PLAYBACK	lure	n/a	n/a	n/a	1
249.501	2.016640323	EARTHQUAKE	long	n/a	n/a	n/a	1
251.518	0.549991902	WOMEN	lure	n/a	n/a	n/a	1
252.068	0.466661474	VERTEBRAE	lure	n/a	n/a	n/a	1
252.534	0.64999122	RECEIPT	lure	n/a	n/a	n/a	1
253.184	0.416659064	INSTRUCTOR	lure	n/a	n/a	n/a	1
253.601	0.349996017	COUNCILMAN	lure	n/a	n/a	n/a	1
253.951	0.583326265	MILLSTONE	lure	n/a	n/a	n/a	1
254.534	0.516659387	NOOSE	lure	n/a	n/a	n/a	1
255.051	0.349995754	FLIGHT	lure	n/a	n/a	n/a	1
255.401	0.633324379	AMBIENCE	lure	n/a	n/a	n/a	1
256.034	0.433327406	BACKACHE	lure	n/a	n/a	n/a	1
256.468	0.399994595	AGENT	lure	n/a	n/a	n/a	1
256.868	0.599992037	VALET	lure	n/a	n/a	n/a	1
257.468	1.016652447	MULBERRY	fruit	874	2	2	1
258.484	0.316662277	REFRESHER	lure	n/a	n/a	n/a	1
258.801	0.433329221	ENTICEMENT	lure	n/a	n/a	n/a	1
259.234	0.683322994	REBUTTAL	lure	n/a	n/a	n/a	1
259.918	0.316663088	TRIBALISM	lure	n/a	n/a	n/a	1
260.234	0.333326108	FRIEND	lure	n/a	n/a	n/a	1
260.568	0.433329617	SERENITY	lure	n/a	n/a	n/a	1
261.001	0.604554146	EARTHLING	lure	n/a	n/a	n/a	1
261.606	0.645428749	DEALER	lure	n/a	n/a	n/a	1
262.251	0.483328366	TEATIME	lure	n/a	n/a	n/a	1
262.734	0.683322629	GOULASH	lure	n/a	n/a	n/a	1
263.418	0.516663086	HORSEBACK	lure	n/a	n/a	n/a	1
263.934	0.466657995	SPUD	lure	n/a	n/a	n/a	1
264.401	0.383324673	SOUL	lure	n/a	n/a	n/a	1
264.784	0.449993598	CIDER	lure	n/a	n/a	n/a	1
265.234	1.016653089	CHERRY	fruit	804	2	2	1
266.251	0.51666313	BROILER	lure	n/a	n/a	n/a	1
266.768	0.46666031	FAILURE	lure	n/a	n/a	n/a	1
267.234	0.651990988	STILETTO	lure	n/a	n/a	n/a	1
267.886	0.314659977	WRAPPER	lure	n/a	n/a	n/a	1
268.201	0.666657765	FABLE	lure	n/a	n/a	n/a	1
268.868	0.699990169	SAGEBRUSH	lure	n/a	n/a	n/a	1
269.568	0.599991601	KARMA	lure	n/a	n/a	n/a	1
270.168	0.717038916	BOOKBINDER	lure	n/a	n/a	n/a	1
270.885	0.649613414	INQUIRER	lure	n/a	n/a	n/a	1
271.534	0.399997219	MERCY	lure	n/a	n/a	n/a	1
271.934	0.399992442	SEDAN	lure	n/a	n/a	n/a	1
272.334	0.699993205	POPPER	lure	n/a	n/a	n/a	1
273.034	0.583320696	GEOGRAPHY	lure	n/a	n/a	n/a	1
273.617	2.016642752	COAL	long	n/a	n/a	n/a	1
275.634	0.766656869	DOCKET	lure	n/a	n/a	n/a	1
276.401	0.56665998	SUET	lure	n/a	n/a	n/a	1
276.967	0.766654487	CHRONICLE	lure	n/a	n/a	n/a	1
277.734	0.46666226	RESCRIPT	lure	n/a	n/a	n/a	1
278.201	0.604522706	RAGTIME	lure	n/a	n/a	n/a	1
278.805	0.478790026	AFTERLIFE	lure	n/a	n/a	n/a	1
279.284	0.7333264	PROMINENCE	lure	n/a	n/a	n/a	1
280.017	0.433328887	ZOMBIE	lure	n/a	n/a	n/a	1
280.451	0.733319159	MILLIGRAM	lure	n/a	n/a	n/a	1
281.184	0.349995587	TOWNSHIP	lure	n/a	n/a	n/a	1
281.534	0.333328901	NUTMEG	lure	n/a	n/a	n/a	1
281.867	1.016657614	RASPBERRY	fruit	707	2	2	1
282.884	0.599986964	LIGHTHOUSE	lure	n/a	n/a	n/a	1
283.484	0.48332693	SOFTBALL	lure	n/a	n/a	n/a	1
283.967	0.483330349	JASMINE	lure	n/a	n/a	n/a	1
284.451	0.433327925	SORBET	lure	n/a	n/a	n/a	1
284.884	0.416660662	BALSAM	lure	n/a	n/a	n/a	1
285.301	0.566658714	PUBLICITY	lure	n/a	n/a	n/a	1
285.867	0.700045362	SKYDIVER	lure	n/a	n/a	n/a	1
286.567	0.41660674	HANDBALL	lure	n/a	n/a	n/a	1
286.984	0.683319906	COURTYARD	lure	n/a	n/a	n/a	1
287.667	0.700020166	CONSTRAINT	lure	n/a	n/a	n/a	1
288.367	0.416632493	LAUNDROMAT	lure	n/a	n/a	n/a	1
288.784	0.699992084	SMOG	lure	n/a	n/a	n/a	1
289.484	0.399993342	ASSORTMENT	lure	n/a	n/a	n/a	1
289.884	2.016644309	PUTTY	long	n/a	n/a	n/a	1
291.901	0.733363202	BUNTING	lure	n/a	n/a	n/a	1
292.634	0.699951237	FALLACY	lure	n/a	n/a	n/a	1
293.334	0.383324573	QUIZMASTER	lure	n/a	n/a	n/a	1
293.717	0.466660038	HABITAT	lure	n/a	n/a	n/a	1
294.184	0.349999733	SAINT	lure	n/a	n/a	n/a	1
294.534	0.449989139	PLURALITY	lure	n/a	n/a	n/a	1
294.984	0.34999792	HAYSTACK	lure	n/a	n/a	n/a	1
295.334	0.733323009	MUSCLEMAN	lure	n/a	n/a	n/a	1
296.067	0.599991911	DUCKWEED	lure	n/a	n/a	n/a	1
296.667	0.383329072	RARITY	lure	n/a	n/a	n/a	1
297.05	0.466659653	COMMODITY	lure	n/a	n/a	n/a	1
297.517	0.583366194	HISTORY	lure	n/a	n/a	n/a	1
298.101	0.616617883	SUDS	short	n/a	n/a	n/a	1
298.717	0.40003322	WONDERLAND	lure	n/a	n/a	n/a	1
299.117	0.616616464	CEREMONY	lure	n/a	n/a	n/a	1
299.734	0.699995795	OUTREACH	lure	n/a	n/a	n/a	1
300.434	0.349993037	METEOROID	lure	n/a	n/a	n/a	1
300.784	0.550048118	MANICURE	lure	n/a	n/a	n/a	1
301.334	0.687637865	WINDMILL	lure	n/a	n/a	n/a	1
302.021	0.528954981	DEFROSTER	lure	n/a	n/a	n/a	1
302.55	0.799991717	MILLENNIA	lure	n/a	n/a	n/a	1
303.35	0.533327419	MANDARIN	lure	n/a	n/a	n/a	1
303.884	0.733322761	GLORY	lure	n/a	n/a	n/a	1
304.617	0.569738007	JAG	lure	n/a	n/a	n/a	1
305.187	0.496953534	GREENBACK	lure	n/a	n/a	n/a	1
305.684	0.633285413	TAXATION	lure	n/a	n/a	n/a	1
306.317	0.616655186	ENGINE	short	n/a	n/a	n/a	1
306.934	0.549995973	FORMATION	lure	n/a	n/a	n/a	1
307.484	0.366659448	PATHWAY	lure	n/a	n/a	n/a	1
307.85	0.499996973	WALKER	lure	n/a	n/a	n/a	1
308.35	0.566728712	EXPECTANCE	lure	n/a	n/a	n/a	1
308.917	0.483254676	PLAGIARISM	lure	n/a	n/a	n/a	1
309.4	0.333385067	FISSURE	lure	n/a	n/a	n/a	1
309.734	0.549937081	CHITCHAT	lure	n/a	n/a	n/a	1
310.284	0.66665798	SIEGE	lure	n/a	n/a	n/a	1
310.95	0.502177532	COMMITTAL	lure	n/a	n/a	n/a	1
311.452	0.397831203	MAID	lure	n/a	n/a	n/a	1
311.85	0.399971002	SWIMMER	lure	n/a	n/a	n/a	1
312.25	0.483326999	FOREFINGER	lure	n/a	n/a	n/a	1
312.734	0.56666093	PASTOR	lure	n/a	n/a	n/a	1
313.3	0.349996636	SYNONYM	lure	n/a	n/a	n/a	1
313.65	0.766658293	EDITOR	lure	n/a	n/a	n/a	1
314.417	0.599990125	WOODCUT	lure	n/a	n/a	n/a	1
315.017	1.016649551	STRAWBERRY	fruit	821	2	2	1
316.034	0.733324933	PLIGHT	lure	n/a	n/a	n/a	1
316.767	0.700036923	LEATHER	lure	n/a	n/a	n/a	1
317.467	0.399951375	DENOTATION	lure	n/a	n/a	n/a	1
317.867	0.416661956	VERSE	lure	n/a	n/a	n/a	1
318.284	0.499987382	RETENTION	lure	n/a	n/a	n/a	1
318.784	0.716659573	SIGNALMAN	lure	n/a	n/a	n/a	1
319.5	0.733320399	GLYCERIN	lure	n/a	n/a	n/a	1
320.234	0.503983387	SEPARATION	lure	n/a	n/a	n/a	1
320.737	0.462672643	ORGANISM	lure	n/a	n/a	n/a	1
321.2	0.566658897	DISLOYALTY	lure	n/a	n/a	n/a	1
321.767	0.466659652	HEXAGRAM	lure	n/a	n/a	n/a	1
322.233	0.749992635	RECREATION	lure	n/a	n/a	n/a	1
322.983	0.733322063	ANCESTOR	lure	n/a	n/a	n/a	1
323.717	0.616663179	LAUNDRY	short	n/a	n/a	n/a	1
324.333	0.966650708	NEGLIGENCE	lure	n/a	n/a	n/a	1
325.3	0.733322718	GALLANTRY	lure	n/a	n/a	n/a	1
326.033	0.74998883	DINOSAUR	lure	n/a	n/a	n/a	1
326.783	0.549997426	DRAMATIST	lure	n/a	n/a	n/a	1
327.333	0.483323608	TEASPOON	lure	n/a	n/a	n/a	1
327.817	0.49999112	SWITCHMAN	lure	n/a	n/a	n/a	1
328.317	0.683327019	QUICKSTEP	lure	n/a	n/a	n/a	1
329	0.633322199	EXPEDIENCY	lure	n/a	n/a	n/a	1
329.633	0.533383699	STAGECOACH	lure	n/a	n/a	n/a	1
330.167	0.64993291	ROWER	lure	n/a	n/a	n/a	1
330.817	0.71665688	PERMIT	lure	n/a	n/a	n/a	1
331.533	0.616659897	OPTIMIST	lure	n/a	n/a	n/a	1
332.15	2.050421533	RAMP	long	n/a	n/a	n/a	1
334.2	0.516213053	KEYPUNCH	lure	n/a	n/a	n/a	1
334.717	0.716691954	BROTHER	lure	n/a	n/a	n/a	1
335.433	0.333290706	RAVEL	lure	n/a	n/a	n/a	1
335.767	0.666660655	REDSKIN	lure	n/a	n/a	n/a	1
336.433	0.449991752	SEALER	lure	n/a	n/a	n/a	1
336.883	0.601491959	STOCKADE	lure	n/a	n/a	n/a	1
337.485	0.448495009	HUMPBACK	lure	n/a	n/a	n/a	1
337.933	0.599988556	BEACON	lure	n/a	n/a	n/a	1
338.533	0.333335336	BENEFICENT	lure	n/a	n/a	n/a	1
338.867	0.533324078	CHEETAH	lure	n/a	n/a	n/a	1
339.4	0.633323737	NARCISSIST	lure	n/a	n/a	n/a	1
340.033	0.416873898	OWL	lure	n/a	n/a	n/a	1
340.45	0.616444044	JAIL	short	n/a	n/a	n/a	1
341.067	0.333329012	DUFFEL	lure	n/a	n/a	n/a	1
341.4	0.633329217	WEEK	lure	n/a	n/a	n/a	1
342.033	0.649988093	PENSION	lure	n/a	n/a	n/a	1
342.683	0.766657639	FRUGALITY	lure	n/a	n/a	n/a	1
343.45	0.633322695	HEADLINE	lure	n/a	n/a	n/a	1
344.083	0.733326251	RAGTAG	lure	n/a	n/a	n/a	1
344.817	0.583383797	TOOL	lure	n/a	n/a	n/a	1
345.4	0.416638797	NOBILITY	lure	n/a	n/a	n/a	1
345.817	0.516622776	FLUORIDE	lure	n/a	n/a	n/a	1
346.333	0.616660738	DEPLETION	lure	n/a	n/a	n/a	1
346.95	0.566651255	DEED	lure	n/a	n/a	n/a	1
347.516	0.349998567	ELASTICITY	lure	n/a	n/a	n/a	1
347.866	0.516660173	FISHERMEN	lure	n/a	n/a	n/a	1
348.383	0.49999154	TAPIOCA	lure	n/a	n/a	n/a	1
348.883	0.616661688	CHART	short	n/a	n/a	n/a	1
349.5	0.733319471	COVERLET	lure	n/a	n/a	n/a	1
350.233	0.483330945	POTTERY	lure	n/a	n/a	n/a	1
350.716	0.383324405	FRAGMENT	lure	n/a	n/a	n/a	1
351.1	0.316664184	DICTIONARY	lure	n/a	n/a	n/a	1
351.416	0.633324055	HIGHWAYMAN	lure	n/a	n/a	n/a	1
352.05	0.516660983	KINSHIP	lure	n/a	n/a	n/a	1
352.566	0.749992379	BOOKMOBILE	lure	n/a	n/a	n/a	1
353.316	0.416656345	DIVERSION	lure	n/a	n/a	n/a	1
353.733	0.649997583	ENACTMENT	lure	n/a	n/a	n/a	1
354.383	0.666652421	KILOMETER	lure	n/a	n/a	n/a	1
355.05	0.686093652	MAXIMUM	lure	n/a	n/a	n/a	1
355.736	0.680561192	BLACKSMITH	lure	n/a	n/a	n/a	1
356.416	0.38332345	IRRITATION	lure	n/a	n/a	n/a	1
356.8	0.399993466	STAG	lure	n/a	n/a	n/a	1
357.2	2.016639572	GIFT	long	n/a	n/a	n/a	1
359.216	0.599991795	WRECKAGE	lure	n/a	n/a	n/a	1
359.816	0.566657269	DINNER	lure	n/a	n/a	n/a	1
360.383	0.433331035	TELEPATHY	lure	n/a	n/a	n/a	1
360.816	0.449996792	AIDE	lure	n/a	n/a	n/a	1
361.266	0.44998794	WOODCOCK	lure	n/a	n/a	n/a	1
361.716	0.600213623	ROSEBUD	lure	n/a	n/a	n/a	1
362.316	0.683105559	CHIMNEY	lure	n/a	n/a	n/a	1
363	0.549989234	STEELMAKER	lure	n/a	n/a	n/a	1
363.55	0.599995176	ADHERENCE	lure	n/a	n/a	n/a	1
364.15	0.333327481	PASSAGE	lure	n/a	n/a	n/a	1
364.483	0.716660006	FOREGROUND	lure	n/a	n/a	n/a	1
365.2	0.533324362	GALE	lure	n/a	n/a	n/a	1
365.733	2.01663686	DEPOT	long	n/a	n/a	n/a	1
367.75	0.533330711	QUANTITY	lure	n/a	n/a	n/a	1
368.283	0.516656255	FARMLAND	lure	n/a	n/a	n/a	1
368.8	0.566658536	CARGO	lure	n/a	n/a	n/a	1
369.366	0.766656207	GRUB	lure	n/a	n/a	n/a	1
370.133	0.649991553	PROTOCOL	lure	n/a	n/a	n/a	1
370.783	0.416662184	GUERRILLA	lure	n/a	n/a	n/a	1
371.199	0.433327833	RINGSIDE	lure	n/a	n/a	n/a	1
371.633	0.667262578	FAD	lure	n/a	n/a	n/a	1
372.3	0.349389929	OAK	lure	n/a	n/a	n/a	1
372.649	0.599993028	MAGNOLIA	lure	n/a	n/a	n/a	1
373.249	0.533322231	DEADLINE	lure	n/a	n/a	n/a	1
373.783	2.016642406	PUMP	long	n/a	n/a	n/a	1
375.799	0.633324801	VILLA	lure	n/a	n/a	n/a	1
376.433	0.433329962	TRANSITION	lure	n/a	n/a	n/a	1
376.866	0.599987643	ALUMNI	lure	n/a	n/a	n/a	1
377.466	0.649990589	FIANCE	lure	n/a	n/a	n/a	1
378.116	0.533328039	LASER	lure	n/a	n/a	n/a	1
378.649	0.52016082	SECESSION	lure	n/a	n/a	n/a	1
379.17	0.496494209	FRAMER	lure	n/a	n/a	n/a	1
379.666	0.566656097	SAUCEPAN	lure	n/a	n/a	n/a	1
380.233	0.499997117	OVERLAY	lure	n/a	n/a	n/a	1
380.733	0.516658973	DEFECT	lure	n/a	n/a	n/a	1
381.249	0.58332371	PYTHON	lure	n/a	n/a	n/a	1
381.833	0.416663924	READOUT	lure	n/a	n/a	n/a	1
382.249	2.016641699	PARADE	long	n/a	n/a	n/a	1
384.266	0.533322827	RACEHORSE	lure	n/a	n/a	n/a	1
384.799	0.716657285	NIGHTCLUB	lure	n/a	n/a	n/a	1
385.516	0.716657063	CUBICLE	lure	n/a	n/a	n/a	1
386.233	0.333327674	CRAWFISH	lure	n/a	n/a	n/a	1
386.566	0.699988529	SONATA	lure	n/a	n/a	n/a	1
387.266	0.566659012	CARTEL	lure	n/a	n/a	n/a	1
387.833	0.566660135	ADORATION	lure	n/a	n/a	n/a	1
388.399	0.583365096	BIRCH	lure	n/a	n/a	n/a	1
388.983	0.499955233	RIVERSIDE	lure	n/a	n/a	n/a	1
389.483	0.549989953	BREAKWATER	lure	n/a	n/a	n/a	1
390.033	0.599995217	CYNIC	lure	n/a	n/a	n/a	1
390.633	1.016653889	PEAR	fruit	797	2	2	1
391.649	0.666653501	ANOREXIA	lure	n/a	n/a	n/a	1
392.316	0.600041875	TEA	lure	n/a	n/a	n/a	1
392.916	0.383330727	TARANTULA	lure	n/a	n/a	n/a	1
393.299	0.516611099	CLOAKROOM	lure	n/a	n/a	n/a	1
393.816	0.416659098	FUNERAL	lure	n/a	n/a	n/a	1
394.233	0.333331	CUB	lure	n/a	n/a	n/a	1
394.566	0.36671749	VARIETY	lure	n/a	n/a	n/a	1
394.933	0.49993926	DIGNITARY	lure	n/a	n/a	n/a	1
395.433	0.733318967	STREAMSIDE	lure	n/a	n/a	n/a	1
396.166	0.316666563	PLATTER	lure	n/a	n/a	n/a	1
396.482	0.749985942	ABSTENTION	lure	n/a	n/a	n/a	1
397.232	0.433329546	UNBELIEVER	lure	n/a	n/a	n/a	1
397.666	0.733322828	NIGHTFALL	lure	n/a	n/a	n/a	1
398.399	0.466662146	HEADSTONE	lure	n/a	n/a	n/a	1
398.866	0.616660217	FLEET	short	n/a	n/a	n/a	1
399.482	0.449987609	VARIATION	lure	n/a	n/a	n/a	1
399.932	0.636482156	HEADWAY	lure	n/a	n/a	n/a	1
400.569	0.480175718	MANNERISM	lure	n/a	n/a	n/a	1
401.049	0.733317911	SILVERFISH	lure	n/a	n/a	n/a	1
401.782	0.483328848	THIMBLE	lure	n/a	n/a	n/a	1
402.266	0.733320152	COUGAR	lure	n/a	n/a	n/a	1
402.999	0.533332951	FLORIST	lure	n/a	n/a	n/a	1
403.532	0.44999419	SAWHORSE	lure	n/a	n/a	n/a	1
403.982	0.466655537	ROSEMARY	lure	n/a	n/a	n/a	1
404.449	0.666657779	DEFENSE	lure	n/a	n/a	n/a	1
405.116	0.399994244	EVERYTHING	lure	n/a	n/a	n/a	1
405.516	0.683326315	DISREPAIR	lure	n/a	n/a	n/a	1
406.199	0.549990545	CONVENT	lure	n/a	n/a	n/a	1
406.749	0.336370092	LIFETIME	lure	n/a	n/a	n/a	1
407.085	0.61362168	SOAP	short	n/a	n/a	n/a	1
407.699	0.383327367	RESALE	lure	n/a	n/a	n/a	1
408.082	0.64999109	FRIGIDITY	lure	n/a	n/a	n/a	1
408.732	0.599993583	PINTO	lure	n/a	n/a	n/a	1
409.332	0.583320878	CHANCELLOR	lure	n/a	n/a	n/a	1
409.916	0.699993773	AUTOCRAT	lure	n/a	n/a	n/a	1
410.616	0.533327038	RAINDROP	lure	n/a	n/a	n/a	1
411.149	0.470123714	SUBSECTION	lure	n/a	n/a	n/a	1
411.619	0.529859997	QUACKERY	lure	n/a	n/a	n/a	1
412.149	0.666657188	BACKBEND	lure	n/a	n/a	n/a	1
412.816	0.59999066	SKIRMISH	lure	n/a	n/a	n/a	1
413.416	0.74999081	MORPHOLOGY	lure	n/a	n/a	n/a	1
414.166	0.449996236	MASOCHIST	lure	n/a	n/a	n/a	1
414.616	0.333328261	GROCERY	lure	n/a	n/a	n/a	1
414.949	0.733323836	BIRTHRATE	lure	n/a	n/a	n/a	1
415.682	1.016648937	RASPBERRY	fruit	740	2	2	1
416.699	0.349998513	GIRL	lure	n/a	n/a	n/a	1
417.049	0.366658713	SWIMSUIT	lure	n/a	n/a	n/a	1
417.416	0.483328753	TRIVIA	lure	n/a	n/a	n/a	1
417.899	0.399996636	DEVIANCY	lure	n/a	n/a	n/a	1
418.299	0.516661352	TORPEDO	lure	n/a	n/a	n/a	1
418.816	0.483322813	LOUGH	lure	n/a	n/a	n/a	1
419.299	0.59999173	PLATITUDE	lure	n/a	n/a	n/a	1
419.899	0.349998452	CRIMP	lure	n/a	n/a	n/a	1
420.249	0.466663333	JELLY	lure	n/a	n/a	n/a	1
420.715	0.64998567	INCREMENT	lure	n/a	n/a	n/a	1
421.365	0.583422051	INCISOR	lure	n/a	n/a	n/a	1
421.949	0.383230503	PIGEONHOLE	lure	n/a	n/a	n/a	1
422.332	0.533331504	SKATER	lure	n/a	n/a	n/a	1
422.865	0.749983573	ANTENNAE	lure	n/a	n/a	n/a	1
423.615	0.716659553	TUNER	lure	n/a	n/a	n/a	1
424.332	0.616662531	MAGAZINE	short	n/a	n/a	n/a	1
424.949	0.766656264	UBIQUITY	lure	n/a	n/a	n/a	1
425.715	0.54998708	MACK	lure	n/a	n/a	n/a	1
426.265	0.433370252	LANDMARK	lure	n/a	n/a	n/a	1
426.699	0.499952719	DEPTH	lure	n/a	n/a	n/a	1
427.199	0.366659592	NITWIT	lure	n/a	n/a	n/a	1
427.565	0.750046992	En/aOLLMENT	lure	n/a	n/a	n/a	1
428.315	0.449942303	DISCIPLE	lure	n/a	n/a	n/a	1
428.765	0.399987402	JURIST	lure	n/a	n/a	n/a	1
429.165	0.666703514	INTRUSION	lure	n/a	n/a	n/a	1
429.832	0.516615913	DOVE	lure	n/a	n/a	n/a	1
430.349	0.583330721	EVICTION	lure	n/a	n/a	n/a	1
430.932	0.636908726	PRESCHOOL	lure	n/a	n/a	n/a	1
431.569	0.429738774	FEVER	lure	n/a	n/a	n/a	1
431.999	0.649996093	PLAINTIFF	lure	n/a	n/a	n/a	1
432.649	0.616656663	COAT	short	n/a	n/a	n/a	1
433.265	0.533326912	MILESTONE	lure	n/a	n/a	n/a	1
433.799	0.653613881	STEAMSHIP	lure	n/a	n/a	n/a	1
434.452	0.463035721	PEWTER	lure	n/a	n/a	n/a	1
434.915	0.599988989	GIRTH	lure	n/a	n/a	n/a	1
435.515	0.666661714	SECRECY	lure	n/a	n/a	n/a	1
436.182	0.666654618	EMPIRICISM	lure	n/a	n/a	n/a	1
436.849	0.450078434	BASKETBALL	lure	n/a	n/a	n/a	1
437.299	0.599911237	BLANKET	lure	n/a	n/a	n/a	1
437.899	0.666659078	CANAL	lure	n/a	n/a	n/a	1
438.565	0.433322671	HARDSHIP	lure	n/a	n/a	n/a	1
438.999	0.399998077	PRANKSTER	lure	n/a	n/a	n/a	1
439.399	0.399992387	WINDSTORM	lure	n/a	n/a	n/a	1
439.799	0.449995048	LACKEY	lure	n/a	n/a	n/a	1
440.249	0.449991543	GOATEE	lure	n/a	n/a	n/a	1
440.699	0.733324822	COWHERD	lure	n/a	n/a	n/a	1
441.432	2.016637172	CORK	long	n/a	n/a	n/a	1
443.449	0.649994586	VENUE	lure	n/a	n/a	n/a	1
444.099	0.469564951	CASEWORK	lure	n/a	n/a	n/a	1
444.568	0.447087621	LACROSSE	lure	n/a	n/a	n/a	1
445.015	0.583322816	PATROLMAN	lure	n/a	n/a	n/a	1
445.598	0.666663395	BACKLASH	lure	n/a	n/a	n/a	1
446.265	0.649989059	DONOR	lure	n/a	n/a	n/a	1
446.915	0.649993389	HISTAMINE	lure	n/a	n/a	n/a	1
447.565	0.649990749	WIDOWER	lure	n/a	n/a	n/a	1
448.215	0.583322429	ORE	lure	n/a	n/a	n/a	1
448.798	0.649990074	GUn/aOOM	lure	n/a	n/a	n/a	1
449.448	2.016640408	FLAG	long	n/a	n/a	n/a	1
451.465	0.616658905	INSISTENCE	lure	n/a	n/a	n/a	1
452.082	0.416663826	REDUNDANCY	lure	n/a	n/a	n/a	1
452.498	0.483324816	SENTINEL	lure	n/a	n/a	n/a	1
452.982	0.683322742	TENET	lure	n/a	n/a	n/a	1
453.665	0.533328409	LAMPPOST	lure	n/a	n/a	n/a	1
454.198	0.402520985	BAPTISM	lure	n/a	n/a	n/a	1
454.601	0.480798747	RAINBOW	lure	n/a	n/a	n/a	1
455.082	0.449992786	COMPETENCY	lure	n/a	n/a	n/a	1
455.532	0.499995024	MARIGOLD	lure	n/a	n/a	n/a	1
456.032	0.333327945	BILLFOLD	lure	n/a	n/a	n/a	1
456.365	0.699990891	LAUNCHER	lure	n/a	n/a	n/a	1
457.065	0.716658805	TROMBONE	lure	n/a	n/a	n/a	1
457.782	0.449991125	MORN	lure	n/a	n/a	n/a	1
458.232	0.666661202	NITROGEN	lure	n/a	n/a	n/a	1
458.898	0.449991531	WATERMARK	lure	n/a	n/a	n/a	1
459.348	0.683323684	CRATE	lure	n/a	n/a	n/a	1
460.032	0.483331939	DECEIT	lure	n/a	n/a	n/a	1
460.515	0.599988639	TRADESMAN	lure	n/a	n/a	n/a	1
461.115	0.599988881	GATOR	lure	n/a	n/a	n/a	1
461.715	0.649995588	JERSEY	lure	n/a	n/a	n/a	1
462.365	0.549995574	ESCALATOR	lure	n/a	n/a	n/a	1
462.915	0.449986992	OUTPOURING	lure	n/a	n/a	n/a	1
463.365	0.566662632	TRADER	lure	n/a	n/a	n/a	1
463.932	0.549993612	DELETION	lure	n/a	n/a	n/a	1
464.482	n/a	SIFTER	lure	n/a	n/a	n/a	1