onset	duration	stim	cond	RT	resp	cresp	acc
4.05	0.416662025	FIREMAN	lure	n/a	n/a	n/a	1
4.467	0.449997333	FRIGHT	lure	n/a	n/a	n/a	1
4.917	0.366662025	MOTEL	lure	n/a	n/a	n/a	1
5.283	0.383327267	ENZYME	lure	n/a	n/a	n/a	1
5.667	0.466659117	MOLEHILL	lure	n/a	n/a	n/a	1
6.133	0.333330283	TURNCOAT	lure	n/a	n/a	n/a	1
6.467	0.44999101	SHOWROOM	lure	n/a	n/a	n/a	1
6.917	0.702585153	PROPHECY	lure	n/a	n/a	n/a	1
7.619	2.014599066	CLUB	long	n/a	n/a	n/a	1
9.634	0.749431718	ENTHUSIAST	lure	n/a	n/a	n/a	1
10.383	0.766659138	VIOLA	lure	n/a	n/a	n/a	1
11.15	0.349990641	BRIDESMAID	lure	n/a	n/a	n/a	1
11.5	0.666657322	BIDDER	lure	n/a	n/a	n/a	1
12.167	0.683326424	HALLWAY	lure	n/a	n/a	n/a	1
12.85	0.316661525	BROCCOLI	lure	n/a	n/a	n/a	1
13.167	0.483325878	WINGSPREAD	lure	n/a	n/a	n/a	1
13.65	0.516720277	VARSITY	lure	n/a	n/a	n/a	1
14.167	0.333268296	PIECEWORK	lure	n/a	n/a	n/a	1
14.5	0.599987698	SECTOR	lure	n/a	n/a	n/a	1
15.1	0.43333475	EVANGELISM	lure	n/a	n/a	n/a	1
15.533	0.633369489	WORKSHOP	lure	n/a	n/a	n/a	1
16.167	2.016594308	RAVINE	long	n/a	n/a	n/a	1
18.183	0.350034516	HOMETOWN	lure	n/a	n/a	n/a	1
18.533	0.416619033	TERRAIN	lure	n/a	n/a	n/a	1
18.95	0.716653615	SLINGER	lure	n/a	n/a	n/a	1
19.666	0.4833292	DESOLATION	lure	n/a	n/a	n/a	1
20.15	0.750045344	BELT	lure	n/a	n/a	n/a	1
20.9	0.716597996	TRAITOR	lure	n/a	n/a	n/a	1
21.616	0.633327339	POPULISM	lure	n/a	n/a	n/a	1
22.25	0.683324273	PROJECTOR	lure	n/a	n/a	n/a	1
22.933	0.316706747	NAMEPLATE	lure	n/a	n/a	n/a	1
23.25	0.68333893	DISLOYALTY	lure	n/a	n/a	n/a	1
23.933	0.449933563	SHOEMAKER	lure	n/a	n/a	n/a	1
24.383	0.616659926	FOIL	short	n/a	n/a	n/a	1
25	0.433325507	CRAWLER	lure	n/a	n/a	n/a	1
25.433	0.466705884	CRAB	lure	n/a	n/a	n/a	1
25.9	0.366611718	CLOSEUP	lure	n/a	n/a	n/a	1
26.266	0.666654151	TWINE	lure	n/a	n/a	n/a	1
26.933	0.383379507	CLOUDBURST	lure	n/a	n/a	n/a	1
27.316	0.57135681	LINER	lure	n/a	n/a	n/a	1
27.888	0.361919337	ROSARY	lure	n/a	n/a	n/a	1
28.25	0.733322004	SHREDDER	lure	n/a	n/a	n/a	1
28.983	0.63332133	BEARD	lure	n/a	n/a	n/a	1
29.616	0.433330057	STOCKPOT	lure	n/a	n/a	n/a	1
30.05	0.583329668	APPAREL	lure	n/a	n/a	n/a	1
30.633	0.536039259	INVASION	lure	n/a	n/a	n/a	1
31.169	0.413943161	LYRICISM	lure	n/a	n/a	n/a	1
31.583	0.51670993	CASTAWAY	lure	n/a	n/a	n/a	1
32.1	0.733269558	PILL	lure	n/a	n/a	n/a	1
32.833	1.049987252	PLUM	fruit	n/a	n/a	2	0
33.883	0.433400381	RARITY	lure	n/a	n/a	n/a	1
34.316	0.63660148	SOFTWARE	lure	161	2	n/a	0
34.953	0.346644884	BROADSWORD	lure	n/a	n/a	n/a	1
35.3	0.533327504	ROUNDUP	lure	n/a	n/a	n/a	1
35.833	0.649989281	DISHCLOTH	lure	n/a	n/a	n/a	1
36.483	0.49999662	MAXIMA	lure	n/a	n/a	n/a	1
36.983	0.533322342	LAYMEN	lure	n/a	n/a	n/a	1
37.516	0.73332165	PROJECTILE	lure	n/a	n/a	n/a	1
38.25	0.46666344	AGGRESSOR	lure	n/a	n/a	n/a	1
38.716	0.666656902	SCRUTINY	lure	n/a	n/a	n/a	1
39.383	0.466657722	MADHOUSE	lure	n/a	n/a	n/a	1
39.85	0.74998839	CITIZEN	lure	n/a	n/a	n/a	1
40.6	0.649992307	FLYER	lure	n/a	n/a	n/a	1
41.249	0.61666029	DRILL	short	n/a	n/a	n/a	1
41.866	0.316659441	TABOO	lure	n/a	n/a	n/a	1
42.183	0.749988665	IDIOM	lure	n/a	n/a	n/a	1
42.933	0.383329558	TECHNICIAN	lure	n/a	n/a	n/a	1
43.316	0.716657685	CHAIRMEN	lure	n/a	n/a	n/a	1
44.033	0.60004929	JURIST	lure	n/a	n/a	n/a	1
44.633	0.399934211	COVE	lure	n/a	n/a	n/a	1
45.033	0.416661477	THRILLER	lure	n/a	n/a	n/a	1
45.449	0.366661242	TIMEPIECE	lure	n/a	n/a	n/a	1
45.816	0.349994877	SINCERITY	lure	n/a	n/a	n/a	1
46.166	0.733323796	SIMILARITY	lure	n/a	n/a	n/a	1
46.899	0.516713888	TOWNSHIP	lure	n/a	n/a	n/a	1
47.416	0.633272088	LATRINE	lure	n/a	n/a	n/a	1
48.049	0.666654702	GUNMEN	lure	n/a	n/a	n/a	1
48.716	0.566717313	CONDOLENCE	lure	n/a	n/a	n/a	1
49.283	2.016579279	MAST	long	n/a	n/a	n/a	1
51.299	0.566656788	INQUISITOR	lure	n/a	n/a	n/a	1
51.866	0.483331623	POSSE	lure	n/a	n/a	n/a	1
52.349	0.433326424	ACTIVITY	lure	n/a	n/a	n/a	1
52.783	0.449988478	GASKET	lure	n/a	n/a	n/a	1
53.233	0.53332848	FINANCIER	lure	n/a	n/a	n/a	1
53.766	0.649989353	DUDE	lure	n/a	n/a	n/a	1
54.416	0.333328742	CLUMP	lure	n/a	n/a	n/a	1
54.749	0.516665111	CLERIC	lure	n/a	n/a	n/a	1
55.266	0.716653203	BOXCAR	lure	n/a	n/a	n/a	1
55.983	0.433330107	METRO	lure	n/a	n/a	n/a	1
56.416	0.66666094	OUTREACH	lure	n/a	n/a	n/a	1
57.083	0.34999021	SACKCLOTH	lure	n/a	n/a	n/a	1
57.433	2.016634055	CONE	long	n/a	n/a	n/a	1
59.449	0.733372601	FOYER	lure	n/a	n/a	n/a	1
60.183	0.533280425	VEGETABLE	lure	n/a	n/a	n/a	1
60.716	0.566657426	FULLBACK	lure	n/a	n/a	n/a	1
61.283	0.633325001	HOUSEWIFE	lure	n/a	n/a	n/a	1
61.916	0.349992663	CINEMA	lure	n/a	n/a	n/a	1
62.266	0.383379836	BATHROBE	lure	n/a	n/a	n/a	1
62.649	0.633274588	EARTHWORM	lure	n/a	n/a	n/a	1
63.283	0.433325757	OBLIGATION	lure	n/a	n/a	n/a	1
63.716	0.31666208	COASTLINE	lure	n/a	n/a	n/a	1
64.033	0.649990472	CARPORT	lure	n/a	n/a	n/a	1
64.683	0.649991702	LAUNCHER	lure	n/a	n/a	n/a	1
65.332	0.433328379	INCREMENT	lure	n/a	n/a	n/a	1
65.766	1.020610165	PEAR	fruit	648	2	2	1
66.786	0.449121702	HEADROOM	lure	n/a	n/a	n/a	1
67.236	0.330242598	INTENT	lure	n/a	n/a	n/a	1
67.566	0.516658738	QUOTA	lure	n/a	n/a	n/a	1
68.082	0.316662078	MONOLOGUE	lure	n/a	n/a	n/a	1
68.399	0.583324879	PARAMETER	lure	n/a	n/a	n/a	1
68.982	0.75007874	FACT	lure	n/a	n/a	n/a	1
69.733	0.766568597	HEIGHT	lure	n/a	n/a	n/a	1
70.499	0.733320564	DIGIT	lure	n/a	n/a	n/a	1
71.232	0.416662314	ARTICHOKE	lure	n/a	n/a	n/a	1
71.649	0.733324044	PERPLEXITY	lure	n/a	n/a	n/a	1
72.382	0.500049893	BANDSTAND	lure	n/a	n/a	n/a	1
72.882	0.651338121	BAZAAR	lure	n/a	n/a	n/a	1
73.534	0.468563584	GEOGRAPHY	lure	n/a	n/a	n/a	1
74.002	0.614567046	DEPOT	short	n/a	n/a	n/a	1
74.617	0.615439602	CHURCHYARD	lure	n/a	n/a	n/a	1
75.232	0.699991258	PATELLA	lure	n/a	n/a	n/a	1
75.932	0.633318529	THIMBLE	lure	n/a	n/a	n/a	1
76.566	0.499999182	UPRISING	lure	n/a	n/a	n/a	1
77.066	0.733321858	VARIETY	lure	n/a	n/a	n/a	1
77.799	0.753839234	JANITOR	lure	n/a	n/a	n/a	1
78.553	0.662811679	LLAMA	lure	n/a	n/a	n/a	1
79.216	0.599986377	PROPORTION	lure	n/a	n/a	n/a	1
79.816	0.533328133	CONFERENCE	lure	n/a	n/a	n/a	1
80.349	0.683318105	MEAL	lure	n/a	n/a	n/a	1
81.032	0.616661257	RETAIL	lure	n/a	n/a	n/a	1
81.649	0.416662078	CAB	lure	n/a	n/a	n/a	1
82.066	2.016633692	PUTTY	long	n/a	n/a	n/a	1
84.082	0.583386916	BLOOMER	lure	n/a	n/a	n/a	1
84.666	0.599934786	PIANIST	lure	n/a	n/a	n/a	1
85.266	0.399994828	CALAMITY	lure	n/a	n/a	n/a	1
85.666	0.633324404	HOSTILITY	lure	n/a	n/a	n/a	1
86.299	0.516659089	CORONATION	lure	n/a	n/a	n/a	1
86.816	0.466709285	PARSON	lure	n/a	n/a	n/a	1
87.282	0.583273614	PEACOCK	lure	n/a	n/a	n/a	1
87.866	0.71665779	GOBBLER	lure	n/a	n/a	n/a	1
88.582	0.549991978	INFRACTION	lure	n/a	n/a	n/a	1
89.132	0.599988442	BODYWORK	lure	n/a	n/a	n/a	1
89.732	0.516664478	CLUBHOUSE	lure	n/a	n/a	n/a	1
90.249	0.616656482	RAMP	short	n/a	n/a	n/a	1
90.865	0.499998304	EVENING	lure	n/a	n/a	n/a	1
91.365	0.416655527	DOOR	lure	n/a	n/a	n/a	1
91.782	0.383329017	TORQUE	lure	n/a	n/a	n/a	1
92.165	0.399993549	PILLBOX	lure	n/a	n/a	n/a	1
92.565	0.349994541	CEREBELLUM	lure	n/a	n/a	n/a	1
92.915	0.68332508	OUTFIELD	lure	n/a	n/a	n/a	1
93.599	0.670701946	ALBINO	lure	n/a	n/a	n/a	1
94.269	0.596564747	DISSENSION	lure	n/a	n/a	n/a	1
94.866	0.499375794	ENCAMPMENT	lure	n/a	n/a	n/a	1
95.365	0.466703921	TUITION	lure	n/a	n/a	n/a	1
95.832	0.48328208	ZOMBIE	lure	n/a	n/a	n/a	1
96.315	0.466659245	STONEWORK	lure	n/a	n/a	n/a	1
96.782	0.466657731	BOOKCASE	lure	n/a	n/a	n/a	1
97.249	0.3999919	GRANDEUR	lure	n/a	n/a	n/a	1
97.649	0.349999198	HOG	lure	n/a	n/a	n/a	1
97.999	0.366663897	MEDALLION	lure	n/a	n/a	n/a	1
98.365	0.616657417	TIRE	short	n/a	n/a	n/a	1
98.982	0.699990999	NUCLEI	lure	n/a	n/a	n/a	1
99.682	0.749987271	PEGBOARD	lure	n/a	n/a	n/a	1
100.432	0.616657929	HEARTBURN	lure	n/a	n/a	n/a	1
101.049	0.616658971	BARRICADE	lure	n/a	n/a	n/a	1
101.665	0.566662323	BARBARITY	lure	n/a	n/a	n/a	1
102.232	0.683319215	MEDLEY	lure	n/a	n/a	n/a	1
102.915	0.549993822	SHUTDOWN	lure	n/a	n/a	n/a	1
103.465	0.516719535	GUESSWORK	lure	n/a	n/a	n/a	1
103.982	0.583263398	COMMUTE	lure	n/a	n/a	n/a	1
104.565	0.366698084	SHEET	lure	n/a	n/a	n/a	1
104.932	0.483292937	LIBERATION	lure	n/a	n/a	n/a	1
105.415	0.350039287	UNDERWORLD	lure	n/a	n/a	n/a	1
105.765	0.466612865	CAMEO	lure	n/a	n/a	n/a	1
106.232	2.016638207	BRUSH	long	n/a	n/a	n/a	1
108.249	0.616659981	HOLDER	lure	n/a	n/a	n/a	1
108.865	0.733369154	TRAVELLER	lure	n/a	n/a	n/a	1
109.599	0.666672496	CHASER	lure	n/a	n/a	n/a	1
110.265	0.586517773	GARDENER	lure	n/a	n/a	n/a	1
110.852	0.496737295	FEDERATION	lure	n/a	n/a	n/a	1
111.349	0.483322847	SMITH	lure	n/a	n/a	n/a	1
111.832	0.550041792	JAILBIRD	lure	n/a	n/a	n/a	1
112.382	0.516615554	CHASTITY	lure	n/a	n/a	n/a	1
112.898	0.416660465	ROADSIDE	lure	n/a	n/a	n/a	1
113.315	0.56670907	FRAILTY	lure	n/a	n/a	n/a	1
113.882	0.583274588	YEAST	lure	n/a	n/a	n/a	1
114.465	2.016639438	SAIL	long	n/a	n/a	n/a	1
116.482	0.716718671	DRAMA	lure	n/a	n/a	n/a	1
117.198	0.366645119	OBSERVER	lure	n/a	n/a	n/a	1
117.565	0.499945615	MOMENT	lure	n/a	n/a	n/a	1
118.065	0.583325052	STAIRCASE	lure	n/a	n/a	n/a	1
118.648	0.566659566	MILKSHAKE	lure	n/a	n/a	n/a	1
119.215	0.333373108	VINEGAR	lure	n/a	n/a	n/a	1
119.548	0.549947221	SENIORITY	lure	n/a	n/a	n/a	1
120.098	0.566701518	RELEVANCY	lure	n/a	n/a	n/a	1
120.665	0.399950262	DEFENCE	lure	n/a	n/a	n/a	1
121.065	0.583371117	LIMB	lure	n/a	n/a	n/a	1
121.648	0.483281721	MYSTIQUE	lure	n/a	n/a	n/a	1
122.132	0.383329232	GANDER	lure	n/a	n/a	n/a	1
122.515	0.650038695	LIGHT	short	n/a	n/a	n/a	1
123.165	0.349948094	FINALIST	lure	n/a	n/a	n/a	1
123.515	0.583372491	AQUEDUCT	lure	n/a	n/a	n/a	1
124.098	0.68327015	RIFLEMAN	lure	n/a	n/a	n/a	1
124.782	0.649996331	DALE	lure	n/a	n/a	n/a	1
125.432	0.649991537	CAGE	lure	n/a	n/a	n/a	1
126.082	0.666650671	MARE	lure	n/a	n/a	n/a	1
126.748	0.400000666	STREET	lure	n/a	n/a	n/a	1
127.148	0.599991091	MONARCH	lure	n/a	n/a	n/a	1
127.748	0.416697597	HEDONIST	lure	n/a	n/a	n/a	1
128.165	0.568422406	ENGRAVER	lure	n/a	n/a	n/a	1
128.733	0.381565836	AMPLIFIER	lure	n/a	n/a	n/a	1
129.115	0.503785897	UMBRELLA	lure	n/a	n/a	n/a	1
129.619	0.496564246	DEFECTION	lure	n/a	n/a	n/a	1
130.115	0.366259124	TRANCE	lure	n/a	n/a	n/a	1
130.482	0.616657538	CORK	short	n/a	n/a	n/a	1
131.098	0.71665763	WIFE	lure	n/a	n/a	n/a	1
131.815	0.766655406	QUILT	lure	n/a	n/a	n/a	1
132.582	0.383325872	RECITATIVE	lure	n/a	n/a	n/a	1
132.965	0.383324235	ANIMAL	lure	n/a	n/a	n/a	1
133.348	0.566663357	LULLABY	lure	n/a	n/a	n/a	1
133.915	0.349995987	SKEPTICISM	lure	n/a	n/a	n/a	1
134.265	0.333379846	MAIDENHOOD	lure	n/a	n/a	n/a	1
134.598	0.64993952	BOOZER	lure	n/a	n/a	n/a	1
135.248	0.550049173	CAROUSEL	lure	n/a	n/a	n/a	1
135.798	0.749933282	SPACESUIT	lure	n/a	n/a	n/a	1
136.548	0.683321751	SPECTATOR	lure	n/a	n/a	n/a	1
137.231	0.566659115	CLOAKROOM	lure	n/a	n/a	n/a	1
137.798	0.383375415	RENDITION	lure	n/a	n/a	n/a	1
138.182	0.449946667	NITRATE	lure	n/a	n/a	n/a	1
138.631	1.068427186	APPLE	fruit	670	2	2	1
139.7	0.698289754	PORTFOLIO	lure	n/a	n/a	n/a	1
140.398	0.383312369	BLOWOUT	lure	n/a	n/a	n/a	1
140.781	0.333270627	ADMIRER	lure	n/a	n/a	n/a	1
141.115	0.716698863	APARTHEID	lure	n/a	n/a	n/a	1
141.831	0.43327861	BAGFUL	lure	n/a	n/a	n/a	1
142.265	0.449993548	ANGLER	lure	n/a	n/a	n/a	1
142.715	0.449993903	VOCABULARY	lure	n/a	n/a	n/a	1
143.165	0.549996373	REVERENCE	lure	n/a	n/a	n/a	1
143.715	0.66665598	BRIAR	lure	n/a	n/a	n/a	1
144.381	0.366722109	SIMPLICITY	lure	n/a	n/a	n/a	1
144.748	0.46664899	RESURGENCE	lure	n/a	n/a	n/a	1
145.215	0.483274307	CAT	lure	n/a	n/a	n/a	1
145.698	0.699996135	MACHINIST	lure	n/a	n/a	n/a	1
146.398	0.366709178	NIECE	lure	n/a	n/a	n/a	1
146.765	1.016598974	PLUM	fruit	649	2	2	1
147.781	0.433327084	KINSMAN	lure	n/a	n/a	n/a	1
148.215	0.366710415	ANALYST	lure	n/a	n/a	n/a	1
148.581	0.616612004	FINGERNAIL	lure	n/a	n/a	n/a	1
149.198	0.366664581	DIPLOMAT	lure	n/a	n/a	n/a	1
149.565	0.583385819	MERIDIAN	lure	n/a	n/a	n/a	1
150.148	0.566593907	MOTIVE	lure	n/a	n/a	n/a	1
150.715	0.516663821	SPARSITY	lure	n/a	n/a	n/a	1
151.231	0.583325014	SWATCH	lure	n/a	n/a	n/a	1
151.815	0.433325885	HOGSHEAD	lure	n/a	n/a	n/a	1
152.248	0.683369639	ASTRONOMER	lure	n/a	n/a	n/a	1
152.931	0.683278739	OUTPORT	lure	n/a	n/a	n/a	1
153.615	0.466654512	BRICK	lure	n/a	n/a	n/a	1
154.081	0.749989503	UTOPIA	lure	n/a	n/a	n/a	1
154.831	0.4833324	DRAPERY	lure	n/a	n/a	n/a	1
155.315	1.050042996	PEACH	fruit	611	2	2	1
156.365	0.549933938	JASMINE	lure	n/a	n/a	n/a	1
156.915	0.41665599	RESENTMENT	lure	n/a	n/a	n/a	1
157.331	0.649990477	BREADBOARD	lure	n/a	n/a	n/a	1
157.981	0.566663832	YOUNGSTER	lure	n/a	n/a	n/a	1
158.548	0.549990866	DRAGNET	lure	n/a	n/a	n/a	1
159.098	0.333331547	BROWNSTONE	lure	n/a	n/a	n/a	1
159.431	0.51665955	ARCHDUKE	lure	n/a	n/a	n/a	1
159.948	0.48332247	THINKER	lure	n/a	n/a	n/a	1
160.431	0.649988423	BOROUGH	lure	n/a	n/a	n/a	1
161.081	0.783373181	MUTUALITY	lure	n/a	n/a	n/a	1
161.865	0.349946966	VELVET	lure	n/a	n/a	n/a	1
162.214	0.416664546	APRON	lure	n/a	n/a	n/a	1
162.631	0.599989694	OFFICER	lure	n/a	n/a	n/a	1
163.231	0.499994251	MELODY	lure	n/a	n/a	n/a	1
163.731	0.616654917	DIRT	short	n/a	n/a	n/a	1
164.348	0.383328692	TRINITY	lure	n/a	n/a	n/a	1
164.731	0.533325028	DISTURBER	lure	n/a	n/a	n/a	1
165.264	0.633324567	SAVER	lure	n/a	n/a	n/a	1
165.898	0.466700481	VOLTAGE	lure	n/a	n/a	n/a	1
166.364	0.766677967	ALCHEMY	lure	n/a	n/a	n/a	1
167.131	0.516594219	INTERPLAY	lure	n/a	n/a	n/a	1
167.648	0.466713625	FOOTPAD	lure	n/a	n/a	n/a	1
168.114	0.733275441	RECORDER	lure	n/a	n/a	n/a	1
168.848	0.316707276	FLEA	lure	n/a	n/a	n/a	1
169.164	0.487445581	VASSAL	lure	n/a	n/a	n/a	1
169.652	0.629161745	PASSBOOK	lure	n/a	n/a	n/a	1
170.281	0.399993113	ARTISAN	lure	n/a	n/a	n/a	1
170.681	0.416654592	CHEEKBONE	lure	n/a	n/a	n/a	1
171.098	0.33333498	ARMADILLO	lure	n/a	n/a	n/a	1
171.431	0.533382181	MOVER	lure	n/a	n/a	n/a	1
171.964	0.616601595	CURB	short	n/a	n/a	n/a	1
172.581	0.499993087	HERMITAGE	lure	n/a	n/a	n/a	1
173.081	0.549993819	MANNERISM	lure	n/a	n/a	n/a	1
173.631	0.366656649	TROPHY	lure	n/a	n/a	n/a	1
173.998	0.350038511	SCRIMMAGE	lure	n/a	n/a	n/a	1
174.348	0.683283027	BAPTISM	lure	n/a	n/a	n/a	1
175.031	0.399989189	DEMANDER	lure	n/a	n/a	n/a	1
175.431	0.399994497	PAPERWORK	lure	n/a	n/a	n/a	1
175.831	0.499996702	WAIVER	lure	n/a	n/a	n/a	1
176.331	0.416662192	MERGER	lure	n/a	n/a	n/a	1
176.748	0.416655801	DOZEN	lure	n/a	n/a	n/a	1
177.164	0.53332571	COBWEB	lure	n/a	n/a	n/a	1
177.698	0.466660361	CELLOPHANE	lure	n/a	n/a	n/a	1
178.164	0.549991919	CHICKWEED	lure	n/a	n/a	n/a	1
178.714	0.349998645	MANSION	lure	n/a	n/a	n/a	1
179.064	0.549994918	CACHET	lure	n/a	n/a	n/a	1
179.614	0.61665782	MACINTOSH	lure	n/a	n/a	n/a	1
180.231	1.016652877	ELDERBERRY	fruit	n/a	n/a	2	0
181.248	0.433327221	INSIGNIA	lure	182	2	n/a	0
181.681	0.516659271	LIFE	lure	n/a	n/a	n/a	1
182.198	0.533320409	DUCKLING	lure	n/a	n/a	n/a	1
182.731	0.550044692	ROD	lure	n/a	n/a	n/a	1
183.281	0.449940698	PROTECTION	lure	n/a	n/a	n/a	1
183.731	0.383331517	CROSSWORD	lure	n/a	n/a	n/a	1
184.114	0.466662555	HOMELAND	lure	n/a	n/a	n/a	1
184.581	0.433327324	INVITATION	lure	n/a	n/a	n/a	1
185.014	0.449989858	SANCTITY	lure	n/a	n/a	n/a	1
185.464	0.584986991	WHOPPER	lure	n/a	n/a	n/a	1
186.049	0.600566691	FISHPOND	lure	n/a	n/a	n/a	1
186.65	0.731089364	CANNON	lure	n/a	n/a	n/a	1
187.381	0.749986836	ARISTOCRAT	lure	n/a	n/a	n/a	1
188.131	0.666656856	PRINCE	lure	n/a	n/a	n/a	1
188.797	2.016642952	MONSOON	long	n/a	n/a	n/a	1
190.814	0.616651302	DEVOLUTION	lure	n/a	n/a	n/a	1
191.431	0.433332673	ARROGANCE	lure	n/a	n/a	n/a	1
191.864	0.683323056	IDEALIST	lure	n/a	n/a	n/a	1
192.547	0.649988113	DEADWOOD	lure	n/a	n/a	n/a	1
193.197	0.749988102	COPYCAT	lure	n/a	n/a	n/a	1
193.947	0.449992544	OTTER	lure	n/a	n/a	n/a	1
194.397	0.36666671	TOWNSFOLK	lure	n/a	n/a	n/a	1
194.764	0.69998644	BEACHHEAD	lure	n/a	n/a	n/a	1
195.464	0.349999912	CAMERAMAN	lure	n/a	n/a	n/a	1
195.814	0.500027197	ELITISM	lure	n/a	n/a	n/a	1
196.314	0.599994397	RIDGE	lure	n/a	n/a	n/a	1
196.914	0.616615786	ASHES	short	n/a	n/a	n/a	1
197.531	0.566661116	TRACKER	lure	n/a	n/a	n/a	1
198.097	0.749986642	FOWLER	lure	n/a	n/a	n/a	1
198.847	0.716656647	HOVERCRAFT	lure	n/a	n/a	n/a	1
199.564	0.450043027	INQUIRER	lure	n/a	n/a	n/a	1
200.014	0.433283893	WOMENFOLK	lure	n/a	n/a	n/a	1
200.447	0.766655842	EYEBROW	lure	n/a	n/a	n/a	1
201.214	0.516653575	TUBA	lure	n/a	n/a	n/a	1
201.731	0.333335037	TRUFFLE	lure	n/a	n/a	n/a	1
202.064	0.699989962	LIVESTOCK	lure	n/a	n/a	n/a	1
202.764	0.383326813	TRIVIALITY	lure	n/a	n/a	n/a	1
203.147	0.603844296	VENISON	lure	n/a	n/a	n/a	1
203.751	0.696139141	NAMESAKE	lure	n/a	n/a	n/a	1
204.447	0.449988005	RAG	lure	n/a	n/a	n/a	1
204.897	2.016644147	ARROW	long	n/a	n/a	n/a	1
206.914	0.783316356	ILLUSION	lure	n/a	n/a	n/a	1
207.697	0.583377404	CHECKOUT	lure	n/a	n/a	n/a	1
208.281	0.733276268	SKETCHBOOK	lure	n/a	n/a	n/a	1
209.014	0.549992288	CALIBER	lure	n/a	n/a	n/a	1
209.564	0.533325823	COHESION	lure	n/a	n/a	n/a	1
210.097	0.587192153	FOOTER	lure	n/a	n/a	n/a	1
210.684	0.446126508	MIRAGE	lure	n/a	n/a	n/a	1
211.13	0.649985154	DETECTIVE	lure	n/a	n/a	n/a	1
211.78	0.400047754	VAMP	lure	n/a	n/a	n/a	1
212.18	0.48327914	FIREBUG	lure	n/a	n/a	n/a	1
212.664	0.449992594	DELEGATE	lure	n/a	n/a	n/a	1
213.114	2.016634774	MACHINE	long	n/a	n/a	n/a	1
215.13	0.316661137	FLAX	lure	n/a	n/a	n/a	1
215.447	0.433333537	MANIA	lure	n/a	n/a	n/a	1
215.88	0.499992593	MUSKET	lure	n/a	n/a	n/a	1
216.38	0.516655275	MOMMY	lure	n/a	n/a	n/a	1
216.897	0.733364891	FEATHER	lure	n/a	n/a	n/a	1
217.63	0.371180552	CHOWDER	lure	n/a	n/a	n/a	1
218.002	0.445437481	RYE	lure	n/a	n/a	n/a	1
218.447	0.36666149	MICROSCOPE	lure	n/a	n/a	n/a	1
218.814	0.566657552	TENANT	lure	n/a	n/a	n/a	1
219.38	0.71665657	FLATTOP	lure	n/a	n/a	n/a	1
220.097	0.549987253	FIELDWORK	lure	n/a	n/a	n/a	1
220.647	0.449993729	SANATORIUM	lure	n/a	n/a	n/a	1
221.097	0.43333396	INNUENDO	lure	n/a	n/a	n/a	1
221.53	0.483370463	GLORY	lure	n/a	n/a	n/a	1
222.014	0.583274349	COLLAGE	lure	n/a	n/a	n/a	1
222.597	0.516662223	WRAPPER	lure	n/a	n/a	n/a	1
223.114	0.633325261	ICEHOUSE	lure	n/a	n/a	n/a	1
223.747	0.549994674	SLUGGER	lure	n/a	n/a	n/a	1
224.297	0.799987769	DOVE	lure	n/a	n/a	n/a	1
225.097	0.766656787	CHURCH	lure	n/a	n/a	n/a	1
225.864	0.733323397	INFUSION	lure	n/a	n/a	n/a	1
226.597	n/a	SQUIRE	lure	n/a	n/a	n/a	1
238.015	0.431696963	ARCHETYPE	lure	n/a	n/a	n/a	1
238.447	0.433318038	DANCER	lure	n/a	n/a	n/a	1
238.88	0.616602392	HEADSET	lure	n/a	n/a	n/a	1
239.497	0.550050468	DECREMENT	lure	n/a	n/a	n/a	1
240.047	0.416601595	COWBELL	lure	n/a	n/a	n/a	1
240.463	0.58332824	EXPIRATION	lure	n/a	n/a	n/a	1
241.047	0.33332622	HELMET	lure	n/a	n/a	n/a	1
241.38	0.400040252	LIQUEUR	lure	n/a	n/a	n/a	1
241.78	0.616611335	ASHES	short	n/a	n/a	n/a	1
242.397	0.483327733	MICROWAVE	lure	n/a	n/a	n/a	1
242.88	0.599991397	LEAFLET	lure	n/a	n/a	n/a	1
243.48	0.733323448	SNATCHER	lure	n/a	n/a	n/a	1
244.213	0.41666182	PASTOR	lure	n/a	n/a	n/a	1
244.63	0.366716681	WHITETAIL	lure	n/a	n/a	n/a	1
244.997	0.683268405	DISCLAIMER	lure	n/a	n/a	n/a	1
245.68	0.43338076	FREEDMEN	lure	n/a	n/a	n/a	1
246.113	0.366606535	PUFFER	lure	n/a	n/a	n/a	1
246.48	0.383328716	ARCHBISHOP	lure	n/a	n/a	n/a	1
246.863	0.699990754	PETROLEUM	lure	n/a	n/a	n/a	1
247.563	0.566728636	SERVITUDE	lure	n/a	n/a	n/a	1
248.13	0.666587672	BALLERINA	lure	n/a	n/a	n/a	1
248.797	0.733322682	CONTENT	lure	n/a	n/a	n/a	1
249.53	0.483370488	AIRLINER	lure	n/a	n/a	n/a	1
250.013	2.016594879	RAVINE	long	n/a	n/a	n/a	1
252.03	0.566657915	ISLANDER	lure	n/a	n/a	n/a	1
252.597	0.700045631	FAIRWAY	lure	n/a	n/a	n/a	1
253.297	0.566664508	INGESTION	lure	n/a	n/a	n/a	1
253.863	0.383266703	BRAVERY	lure	n/a	n/a	n/a	1
254.247	0.633380758	ECLIPSE	lure	n/a	n/a	n/a	1
254.88	0.466603097	ACCUSATION	lure	n/a	n/a	n/a	1
255.346	0.333328258	GRANDCHILD	lure	n/a	n/a	n/a	1
255.68	0.366707115	EARDRUM	lure	n/a	n/a	n/a	1
256.047	0.599989009	FOXHOLE	lure	n/a	n/a	n/a	1
256.647	0.316619642	DEFAMATION	lure	n/a	n/a	n/a	1
256.963	0.516656893	THIEVERY	lure	n/a	n/a	n/a	1
257.48	0.316715238	RACEWAY	lure	n/a	n/a	n/a	1
257.797	0.616608663	DRILL	short	n/a	n/a	n/a	1
258.413	0.749989512	GALE	lure	n/a	n/a	n/a	1
259.163	0.499992968	RETAILER	lure	n/a	n/a	n/a	1
259.663	0.433326565	WEEKEND	lure	n/a	n/a	n/a	1
260.096	0.40005277	PROFESSION	lure	n/a	n/a	n/a	1
260.496	0.733324966	BOUNTY	lure	n/a	n/a	n/a	1
261.23	0.59998361	CELERY	lure	n/a	n/a	n/a	1
261.83	0.699938609	PRINCIPLE	lure	n/a	n/a	n/a	1
262.53	0.466716129	SIMULATOR	lure	n/a	n/a	n/a	1
262.996	0.533269948	VISION	lure	n/a	n/a	n/a	1
263.53	0.534131467	FORE	lure	n/a	n/a	n/a	1
264.064	0.6659102	JEWEL	lure	n/a	n/a	n/a	1
264.73	0.749929216	WRINGER	lure	n/a	n/a	n/a	1
265.48	0.683381496	NONFICTION	lure	n/a	n/a	n/a	1
266.163	0.616601645	CORK	short	n/a	n/a	n/a	1
266.78	0.733540445	HOMEMAKER	lure	n/a	n/a	n/a	1
267.513	0.666439835	CRAFTSMEN	lure	n/a	n/a	n/a	1
268.18	0.749988481	TUBE	lure	n/a	n/a	n/a	1
268.93	0.499992779	AMPUTATION	lure	n/a	n/a	n/a	1
269.43	0.616658557	ODE	lure	n/a	n/a	n/a	1
270.046	0.583383202	TRAIT	lure	n/a	n/a	n/a	1
270.63	0.466659316	RETAINER	lure	n/a	n/a	n/a	1
271.096	0.716594338	SUPERNOVA	lure	n/a	n/a	n/a	1
271.813	0.350000505	PENINSULA	lure	n/a	n/a	n/a	1
272.163	0.399993494	PLANKTON	lure	n/a	n/a	n/a	1
272.563	0.666656366	MAINSTREAM	lure	n/a	n/a	n/a	1
273.23	0.533327231	GUNMAN	lure	n/a	n/a	n/a	1
273.763	0.516660741	SUCCESSION	lure	n/a	n/a	n/a	1
274.28	1.016698944	ORANGE	fruit	550	2	2	1
275.296	0.749988996	GAMBLER	lure	n/a	n/a	n/a	1
276.046	0.633278341	TENEMENT	lure	n/a	n/a	n/a	1
276.68	0.499994182	WHISKY	lure	n/a	n/a	n/a	1
277.18	0.449991729	BUTCHERY	lure	n/a	n/a	n/a	1
277.63	0.649989549	ISLE	lure	n/a	n/a	n/a	1
278.28	0.349995556	METAL	lure	n/a	n/a	n/a	1
278.63	0.649987717	WALLFLOWER	lure	n/a	n/a	n/a	1
279.279	0.366666157	CUMULATION	lure	n/a	n/a	n/a	1
279.646	0.383325999	REMINDER	lure	n/a	n/a	n/a	1
280.029	0.70420315	PEASANTRY	lure	n/a	n/a	n/a	1
280.734	0.362506628	POLLUTION	lure	n/a	n/a	n/a	1
281.096	0.433271126	IDEOLOGY	lure	n/a	n/a	n/a	1
281.529	0.483324981	FIASCO	lure	n/a	n/a	n/a	1
282.013	0.433329339	RUMP	lure	n/a	n/a	n/a	1
282.446	1.049980071	NECTARINE	fruit	704	2	2	1
283.496	0.316666397	DRAY	lure	n/a	n/a	n/a	1
283.813	0.58382178	BOOKMARK	lure	n/a	n/a	n/a	1
284.397	0.316167387	CASEWORKER	lure	n/a	n/a	n/a	1
284.713	0.400052951	COWGIRL	lure	n/a	n/a	n/a	1
285.113	0.69993111	SCENERY	lure	n/a	n/a	n/a	1
285.813	0.699989931	POMPOM	lure	n/a	n/a	n/a	1
286.513	0.749989204	ONLOOKER	lure	n/a	n/a	n/a	1
287.263	0.666657782	VAGABOND	lure	n/a	n/a	n/a	1
287.929	0.550054872	POKER	lure	n/a	n/a	n/a	1
288.479	0.449930689	CONVERSANT	lure	n/a	n/a	n/a	1
288.929	0.384042951	CRIMP	lure	n/a	n/a	n/a	1
289.313	0.565939251	FOOTWEAR	lure	n/a	n/a	n/a	1
289.879	0.550045925	TEARDROP	lure	n/a	n/a	n/a	1
290.429	0.416611755	SOLITUDE	lure	n/a	n/a	n/a	1
290.846	2.016639154	MAST	long	n/a	n/a	n/a	1
292.863	0.533323442	TALE	lure	n/a	n/a	n/a	1
293.396	0.500038625	GEESE	lure	n/a	n/a	n/a	1
293.896	0.683278977	MISFORTUNE	lure	n/a	n/a	n/a	1
294.579	0.533322016	EYESTRAIN	lure	n/a	n/a	n/a	1
295.113	0.449997341	VEHICLE	lure	n/a	n/a	n/a	1
295.563	0.399996088	ENCORE	lure	n/a	n/a	n/a	1
295.963	0.333326218	SALESCLERK	lure	n/a	n/a	n/a	1
296.296	0.733324921	STOCKYARD	lure	n/a	n/a	n/a	1
297.029	0.483324894	ROOF	lure	n/a	n/a	n/a	1
297.513	0.433327567	CROQUET	lure	n/a	n/a	n/a	1
297.946	0.666657228	PSYCHO	lure	n/a	n/a	n/a	1
298.613	0.633325131	PENNY	lure	n/a	n/a	n/a	1
299.246	1.016653448	PLUM	fruit	648	2	2	1
300.263	0.616656703	STOCKADE	lure	n/a	n/a	n/a	1
300.879	0.399991966	ARMCHAIR	lure	n/a	n/a	n/a	1
301.279	0.416663346	DIETICIAN	lure	n/a	n/a	n/a	1
301.696	0.700473418	SACHET	lure	n/a	n/a	n/a	1
302.396	0.349511428	PEANUT	lure	n/a	n/a	n/a	1
302.746	0.749991655	CARICATURE	lure	n/a	n/a	n/a	1
303.496	0.549990664	SQUALL	lure	n/a	n/a	n/a	1
304.046	0.549991699	ITEM	lure	n/a	n/a	n/a	1
304.596	0.483327538	SEPARATISM	lure	n/a	n/a	n/a	1
305.079	0.366661365	DEFERENCE	lure	n/a	n/a	n/a	1
305.446	0.616657528	VALUATION	lure	n/a	n/a	n/a	1
306.062	0.649989717	FAUCET	lure	n/a	n/a	n/a	1
306.712	0.433328802	DIAGRAM	lure	n/a	n/a	n/a	1
307.146	0.699990225	MUSKRAT	lure	n/a	n/a	n/a	1
307.846	2.016639473	CONE	long	n/a	n/a	n/a	1
309.862	0.483324731	CARRIAGE	lure	n/a	n/a	n/a	1
310.346	0.733324232	CRUSADER	lure	n/a	n/a	n/a	1
311.079	0.649989652	BRAINWAVE	lure	n/a	n/a	n/a	1
311.729	0.549993017	WORKMEN	lure	n/a	n/a	n/a	1
312.279	0.735112119	FREIGHTER	lure	n/a	n/a	n/a	1
313.014	0.698202646	NEBULA	lure	n/a	n/a	n/a	1
313.712	0.599989821	SHAWL	lure	n/a	n/a	n/a	1
314.312	0.316663341	EDDY	lure	n/a	n/a	n/a	1
314.629	0.433326414	PETAL	lure	n/a	n/a	n/a	1
315.062	0.466660453	WELDER	lure	n/a	n/a	n/a	1
315.529	0.333389937	OBSTACLE	lure	n/a	n/a	n/a	1
315.862	1.01665109	CHERRY	fruit	751	2	2	1
316.879	0.587593714	VIGILANCE	lure	n/a	n/a	n/a	1
317.467	0.616567465	REVEREND	lure	n/a	n/a	n/a	1
318.083	0.749570106	SERGE	lure	n/a	n/a	n/a	1
318.833	0.34623453	MUD	lure	n/a	n/a	n/a	1
319.179	0.449937055	BOW	lure	n/a	n/a	n/a	1
319.629	0.483379678	PUNISHMENT	lure	n/a	n/a	n/a	1
320.112	0.683326887	BRONCO	lure	n/a	n/a	n/a	1
320.796	0.483265724	BAGPIPE	lure	n/a	n/a	n/a	1
321.279	0.399997993	RELATIVISM	lure	n/a	n/a	n/a	1
321.679	0.633324795	HOOCH	lure	n/a	n/a	n/a	1
322.312	0.633324176	STARTER	lure	n/a	n/a	n/a	1
322.946	0.583326143	HILARITY	lure	n/a	n/a	n/a	1
323.529	0.383382457	INSTEP	lure	n/a	n/a	n/a	1
323.912	2.016584701	MONSOON	long	n/a	n/a	n/a	1
325.929	0.483379626	SUPEREGO	lure	n/a	n/a	n/a	1
326.412	0.416606612	RATIONALE	lure	n/a	n/a	n/a	1
326.829	0.666712644	CYNICISM	lure	n/a	n/a	n/a	1
327.496	0.349940175	GAZEBO	lure	n/a	n/a	n/a	1
327.845	0.333385504	DEXTERITY	lure	n/a	n/a	n/a	1
328.179	0.616599367	BOSOM	lure	n/a	n/a	n/a	1
328.795	0.51666042	CORN	lure	n/a	n/a	n/a	1
329.312	0.349995543	TOPAZ	lure	n/a	n/a	n/a	1
329.662	0.733379039	GOLDSMITH	lure	n/a	n/a	n/a	1
330.396	0.449937473	POSTBOX	lure	n/a	n/a	n/a	1
330.845	0.599991325	CLIENT	lure	n/a	n/a	n/a	1
331.445	0.349995864	MISTER	lure	n/a	n/a	n/a	1
331.795	0.616657868	TIRE	short	n/a	n/a	n/a	1
332.412	0.399994257	FIREPLACE	lure	n/a	n/a	n/a	1
332.812	0.59999133	MANHOOD	lure	n/a	n/a	n/a	1
333.412	0.383328254	BRICKWORK	lure	n/a	n/a	n/a	1
333.795	0.616705801	SLIPPER	lure	n/a	n/a	n/a	1
334.412	0.469909526	DOGHOUSE	lure	n/a	n/a	n/a	1
334.882	0.631568186	IRRITANT	lure	n/a	n/a	n/a	1
335.514	0.481785367	STORAGE	lure	n/a	n/a	n/a	1
335.995	0.53332453	CURATOR	lure	n/a	n/a	n/a	1
336.529	0.483327761	VISITOR	lure	n/a	n/a	n/a	1
337.012	0.5333791	POND	lure	n/a	n/a	n/a	1
337.545	0.416606725	MOURNER	lure	n/a	n/a	n/a	1
337.962	0.583383333	AIRSPACE	lure	n/a	n/a	n/a	1
338.545	0.450009198	EPIPHANY	lure	n/a	n/a	n/a	1
338.995	0.485646255	LEGACY	lure	n/a	n/a	n/a	1
339.481	0.64759904	SCRAPER	lure	n/a	n/a	n/a	1
340.129	0.616655276	DEPOT	short	n/a	n/a	n/a	1
340.745	0.366719895	STAGECOACH	lure	n/a	n/a	n/a	1
341.112	0.349938731	ROYALTY	lure	n/a	n/a	n/a	1
341.462	0.716713874	POLYGON	lure	n/a	n/a	n/a	1
342.179	0.333270473	SEASON	lure	n/a	n/a	n/a	1
342.512	0.533322164	PUB	lure	n/a	n/a	n/a	1
343.045	0.599996976	PIGMENT	lure	n/a	n/a	n/a	1
343.645	0.416659484	SUCCESSOR	lure	n/a	n/a	n/a	1
344.062	0.633323588	TEAMWORK	lure	n/a	n/a	n/a	1
344.695	0.599994309	PRAIRIE	lure	n/a	n/a	n/a	1
345.295	0.350055253	MUSTACHE	lure	n/a	n/a	n/a	1
345.645	0.354757672	LOTION	lure	n/a	n/a	n/a	1
346	0.695168254	CULPRIT	lure	n/a	n/a	n/a	1
346.695	0.699984761	ADVOCACY	lure	n/a	n/a	n/a	1
347.395	0.733374849	JOINER	lure	n/a	n/a	n/a	1
348.129	0.633363266	SEGA	lure	n/a	n/a	n/a	1
348.762	2.0165521	SAIL	long	n/a	n/a	n/a	1
350.778	0.733322712	LIBRARY	lure	n/a	n/a	n/a	1
351.512	0.733380019	EMBODIMENT	lure	n/a	n/a	n/a	1
352.245	0.666598784	TWEED	lure	n/a	n/a	n/a	1
352.912	0.666712985	INSPECTOR	lure	n/a	n/a	n/a	1
353.579	0.733268167	TYPOLOGY	lure	n/a	n/a	n/a	1
354.312	0.533326624	APPARENCY	lure	n/a	n/a	n/a	1
354.845	0.733320657	BANISHMENT	lure	n/a	n/a	n/a	1
355.578	0.59999525	SURVEY	lure	n/a	n/a	n/a	1
356.178	0.400052823	PROFUSION	lure	n/a	n/a	n/a	1
356.578	2.016580727	PUTTY	long	n/a	n/a	n/a	1
358.595	0.683322759	TENACITY	lure	n/a	n/a	n/a	1
359.278	0.583323465	BLIMP	lure	n/a	n/a	n/a	1
359.862	0.766655399	NEARSIDE	lure	n/a	n/a	n/a	1
360.628	0.449990777	CONSTRAINT	lure	n/a	n/a	n/a	1
361.078	0.652792192	LASER	lure	n/a	n/a	n/a	1
361.731	0.713931225	BASKET	lure	n/a	n/a	n/a	1
362.445	0.46658818	WAGTAIL	lure	n/a	n/a	n/a	1
362.912	0.733370959	TANNER	lure	n/a	n/a	n/a	1
363.645	0.69994134	COLLATION	lure	n/a	n/a	n/a	1
364.345	0.433327474	RECTORY	lure	n/a	n/a	n/a	1
364.778	1.018530325	CHERRY	fruit	555	2	2	1
365.797	0.569570945	POLYNOMIAL	lure	n/a	n/a	n/a	1
366.366	0.378563034	JACKET	lure	n/a	n/a	n/a	1
366.745	0.43338197	CONFETTI	lure	n/a	n/a	n/a	1
367.178	0.666574529	BLOODSTOCK	lure	n/a	n/a	n/a	1
367.845	0.633328684	INEQUITY	lure	n/a	n/a	n/a	1
368.478	0.649989783	POWERBOAT	lure	n/a	n/a	n/a	1
369.128	0.333327854	PHILOSOPHY	lure	n/a	n/a	n/a	1
369.462	0.683326381	DABBLER	lure	n/a	n/a	n/a	1
370.145	0.699984464	RELIEF	lure	n/a	n/a	n/a	1
370.845	0.383327156	PHONOLOGY	lure	n/a	n/a	n/a	1
371.228	0.399999013	ESQUIRE	lure	n/a	n/a	n/a	1
371.628	0.699991774	DEMOLITION	lure	n/a	n/a	n/a	1
372.328	0.699988508	VIBRATION	lure	n/a	n/a	n/a	1
373.028	2.016637661	ARROW	long	n/a	n/a	n/a	1
375.045	0.766658845	MINUET	lure	n/a	n/a	n/a	1
375.811	0.666652518	EXPULSION	lure	n/a	n/a	n/a	1
376.478	0.599995353	SEMICOLON	lure	n/a	n/a	n/a	1
377.078	0.316723371	OVEN	lure	n/a	n/a	n/a	1
377.395	0.70427914	MONGOOSE	lure	n/a	n/a	n/a	1
378.099	0.678975079	VISTA	lure	n/a	n/a	n/a	1
378.778	0.650062244	ASSONANCE	lure	n/a	n/a	n/a	1
379.428	0.449920952	ELF	lure	n/a	n/a	n/a	1
379.878	0.499992678	FIANCEE	lure	n/a	n/a	n/a	1
380.378	0.616654683	MARL	lure	n/a	n/a	n/a	1
380.995	0.649994905	LIGHT	short	n/a	n/a	n/a	1
381.645	0.583321873	PARLIAMENT	lure	n/a	n/a	n/a	1
382.228	0.666660836	WORKBOOK	lure	n/a	n/a	n/a	1
382.895	0.616656971	WARMUP	lure	n/a	n/a	n/a	1
383.511	0.683323977	ARCHAISM	lure	n/a	n/a	n/a	1
384.195	0.449994453	HOBO	lure	n/a	n/a	n/a	1
384.645	0.583325972	HAYSTACK	lure	n/a	n/a	n/a	1
385.228	0.683322024	SCREENPLAY	lure	n/a	n/a	n/a	1
385.911	0.449990662	BOTANY	lure	n/a	n/a	n/a	1
386.361	0.416664377	PLUMBER	lure	n/a	n/a	n/a	1
386.778	0.549993907	SCRIPTURE	lure	n/a	n/a	n/a	1
387.328	0.452941825	REVOCATION	lure	n/a	n/a	n/a	1
387.781	0.413711739	BRAKEMAN	lure	n/a	n/a	n/a	1
388.195	0.633323111	THEORY	lure	n/a	n/a	n/a	1
388.828	0.666657672	CASTOR	lure	n/a	n/a	n/a	1
389.495	2.016640493	CLUB	long	n/a	n/a	n/a	1
391.511	0.449986662	INCLINE	lure	n/a	n/a	n/a	1
391.961	0.35000139	CLIQUE	lure	n/a	n/a	n/a	1
392.311	0.399994583	LONGHORN	lure	n/a	n/a	n/a	1
392.711	0.383327004	RANSOM	lure	n/a	n/a	n/a	1
393.095	0.483326537	WARRIOR	lure	n/a	n/a	n/a	1
393.578	0.583324634	MOUSETRAP	lure	n/a	n/a	n/a	1
394.161	0.683326969	TURBULENCE	lure	n/a	n/a	n/a	1
394.845	0.56665401	BURNSIDE	lure	n/a	n/a	n/a	1
395.411	0.599987899	JARGON	lure	n/a	n/a	n/a	1
396.011	0.566663381	DOMINATION	lure	n/a	n/a	n/a	1
396.578	0.700031391	ROUGHNECK	lure	n/a	n/a	n/a	1
397.278	0.433289174	POSITIVISM	lure	n/a	n/a	n/a	1
397.711	1.016712198	LEMON	fruit	638	2	2	1
398.728	0.699924428	MARQUEE	lure	n/a	n/a	n/a	1
399.428	0.549996035	HUBCAP	lure	n/a	n/a	n/a	1
399.978	0.649992807	AUTONOMY	lure	n/a	n/a	n/a	1
400.628	0.649989923	CONDUCTION	lure	n/a	n/a	n/a	1
401.278	0.366664072	RECITAL	lure	n/a	n/a	n/a	1
401.644	0.31665975	ENTOMOLOGY	lure	n/a	n/a	n/a	1
401.961	0.733377058	HOBBYHORSE	lure	n/a	n/a	n/a	1
402.694	0.583270949	OUNCE	lure	n/a	n/a	n/a	1
403.278	0.749988372	FREQUENCY	lure	n/a	n/a	n/a	1
404.028	0.485001152	INTELLECT	lure	n/a	n/a	n/a	1
404.513	0.481653746	PAYMASTER	lure	n/a	n/a	n/a	1
404.994	0.366657776	YARN	lure	n/a	n/a	n/a	1
405.361	0.452377469	NOTHING	lure	n/a	n/a	n/a	1
405.813	0.647647822	HEARTH	lure	n/a	n/a	n/a	1
406.461	0.616618367	DIRT	short	n/a	n/a	n/a	1
407.078	0.66665704	NOMINATION	lure	n/a	n/a	n/a	1
407.744	0.533377118	BLACKBOARD	lure	n/a	n/a	n/a	1
408.278	0.64994071	PIPSQUEAK	lure	n/a	n/a	n/a	1
408.928	0.499995149	COLONIST	lure	n/a	n/a	n/a	1
409.428	0.383327488	RADISH	lure	n/a	n/a	n/a	1
409.811	0.583324959	TOOTHBRUSH	lure	n/a	n/a	n/a	1
410.394	0.500037039	BACKBOARD	lure	n/a	n/a	n/a	1
410.894	0.600011974	EXTREMISM	lure	n/a	n/a	n/a	1
411.494	0.549994639	RECORD	lure	n/a	n/a	n/a	1
412.044	0.486083982	DUNGEON	lure	n/a	n/a	n/a	1
412.53	0.497244925	FRESHMEN	lure	n/a	n/a	n/a	1
413.028	0.58324919	WINGMAN	lure	n/a	n/a	n/a	1
413.611	0.583385877	BUNGALOW	lure	n/a	n/a	n/a	1
414.194	0.39998066	FINISHER	lure	n/a	n/a	n/a	1
414.594	2.016592521	MACHINE	long	n/a	n/a	n/a	1
416.611	0.533323895	PLAZA	lure	n/a	n/a	n/a	1
417.144	0.483326959	MAT	lure	n/a	n/a	n/a	1
417.628	0.68336739	PENCE	lure	n/a	n/a	n/a	1
418.311	0.499949503	MEMORY	lure	n/a	n/a	n/a	1
418.811	0.500049507	BABOON	lure	n/a	n/a	n/a	1
419.311	0.587786439	SWEATSHIRT	lure	n/a	n/a	n/a	1
419.899	0.46356246	COURTESY	lure	n/a	n/a	n/a	1
420.362	0.73190243	INCIDENT	lure	n/a	n/a	n/a	1
421.094	0.749989261	TURBINE	lure	n/a	n/a	n/a	1
421.844	0.533327116	TREATMENT	lure	n/a	n/a	n/a	1
422.377	0.716655317	QUANTITY	lure	n/a	n/a	n/a	1
423.094	0.649990444	RAMP	short	n/a	n/a	n/a	1
423.744	0.51665995	TRADER	lure	n/a	n/a	n/a	1
424.261	0.416659755	CEMETERY	lure	n/a	n/a	n/a	1
424.677	0.483327408	CARPENTER	lure	n/a	n/a	n/a	1
425.161	0.599991422	COMPLAINT	lure	n/a	n/a	n/a	1
425.761	0.433328136	CATTLE	lure	n/a	n/a	n/a	1
426.194	0.366661854	ADMITTANCE	lure	n/a	n/a	n/a	1
426.561	0.716657355	ALLOTMENT	lure	n/a	n/a	n/a	1
427.277	0.699988457	SOLDIERY	lure	n/a	n/a	n/a	1
427.977	0.699990947	BRIBERY	lure	n/a	n/a	n/a	1
428.677	0.783321306	STREAMER	lure	n/a	n/a	n/a	1
429.461	0.683967856	FIGMENT	lure	n/a	n/a	n/a	1
430.145	0.432683828	VALIDITY	lure	n/a	n/a	n/a	1
430.577	0.499992535	DOLT	lure	n/a	n/a	n/a	1
431.077	0.616659883	CURB	short	n/a	n/a	n/a	1
431.694	0.716710778	CROCODILE	lure	n/a	n/a	n/a	1
432.411	0.533271387	REPAYMENT	lure	n/a	n/a	n/a	1
432.944	0.733516662	VIRTUOSITY	lure	n/a	n/a	n/a	1
433.678	0.716461726	CADET	lure	n/a	n/a	n/a	1
434.394	0.549993674	METAPHOR	lure	n/a	n/a	n/a	1
434.944	0.64998861	EYELASH	lure	n/a	n/a	n/a	1
435.594	0.483327625	BRETHREN	lure	n/a	n/a	n/a	1
436.077	0.566659065	DESERT	lure	n/a	n/a	n/a	1
436.644	0.366661634	ETHNOLOGY	lure	n/a	n/a	n/a	1
437.011	0.349994535	SCALPEL	lure	n/a	n/a	n/a	1
437.361	0.349993875	CUTBACK	lure	n/a	n/a	n/a	1
437.711	0.533327231	WOMBAT	lure	n/a	n/a	n/a	1
438.244	0.49999268	PASSION	lure	n/a	n/a	n/a	1
438.744	0.683323301	OVERHANG	lure	n/a	n/a	n/a	1
439.427	2.016640563	BRUSH	long	n/a	n/a	n/a	1
441.444	0.400042024	SWORD	lure	n/a	n/a	n/a	1
441.844	0.633275411	CONCORD	lure	n/a	n/a	n/a	1
442.477	0.316662534	COWBOY	lure	n/a	n/a	n/a	1
442.794	0.333375524	RIVERVIEW	lure	n/a	n/a	n/a	1
443.127	0.749988174	EXCISION	lure	n/a	n/a	n/a	1
443.877	0.500008562	LOOPHOLE	lure	n/a	n/a	n/a	1
444.377	0.599932666	REPRISAL	lure	n/a	n/a	n/a	1
444.977	0.733320685	SEAPLANE	lure	n/a	n/a	n/a	1
445.71	0.61665843	TOURISM	lure	n/a	n/a	n/a	1
446.327	0.633323991	SOCIOLOGY	lure	n/a	n/a	n/a	1
446.96	0.733374828	SEDATIVE	lure	n/a	n/a	n/a	1
447.694	0.616601771	FOIL	short	n/a	n/a	n/a	1
448.31	0.733327183	SWINGER	lure	n/a	n/a	n/a	1
449.044	0.716658227	SYMBOLISM	lure	n/a	n/a	n/a	1
449.76	0.549992449	FERRYBOAT	lure	n/a	n/a	n/a	1
450.31	0.499991996	PROTRUSION	lure	n/a	n/a	n/a	1
450.81	0.552394928	SUITOR	lure	n/a	n/a	n/a	1
451.363	0.764253786	OUTFLOW	lure	n/a	n/a	n/a	1
452.127	0.350031509	POLICEMAN	lure	n/a	n/a	n/a	1
452.477	0.516621748	HANDBOOK	lure	n/a	n/a	n/a	1
452.994	0.449993516	PROLOGUE	lure	n/a	n/a	n/a	1
453.444	0.699992099	GUMBO	lure	n/a	n/a	n/a	1
454.144	0.383325568	LAMP	lure	n/a	n/a	n/a	1
454.527	0.533328186	SUn/aISE	lure	n/a	n/a	n/a	1
455.06	0.56665733	CONJUNCT	lure	n/a	n/a	n/a	1
455.627	0.549995336	BOOKCLUB	lure	n/a	n/a	n/a	1
456.177	0.583322957	EARRING	lure	n/a	n/a	n/a	1
456.76	0.533326106	LACROSSE	lure	n/a	n/a	n/a	1
457.294	0.533325271	NEEDLEWORK	lure	n/a	n/a	n/a	1
457.827	0.317062181	MALL	lure	n/a	n/a	n/a	1
458.144	0.482926445	BULLETIN	lure	n/a	n/a	n/a	1
458.627	0.533325695	HAG	lure	n/a	n/a	n/a	1
459.16	0.466660037	QUIRK	lure	n/a	n/a	n/a	1
459.627	0.69999128	DEFIANCE	lure	n/a	n/a	n/a	1
460.327	0.668506639	FORTITUDE	lure	n/a	n/a	n/a	1
460.995	0.481476793	CITY	lure	n/a	n/a	n/a	1
461.477	0.500053741	COMPOSURE	lure	n/a	n/a	n/a	1
461.977	0.583270413	HUB	lure	n/a	n/a	n/a	1
462.56	0.466652964	LUNG	lure	n/a	n/a	n/a	1
463.027	0.59999347	OCCURRENCE	lure	n/a	n/a	n/a	1
463.627	0.769959515	EDUCATION	lure	n/a	n/a	n/a	1
464.397	0.496689106	COVERAGE	lure	n/a	n/a	n/a	1
464.894	n/a	MODIFIER	lure	n/a	n/a	n/a	1