onset	duration	stim	cond	RT	resp	cresp	acc
4.045	0.397895118	VECTOR	lure	n/a	n/a	n/a	1
4.443	0.399989824	UNTRUTH	lure	n/a	n/a	n/a	1
4.843	0.633324253	BACON	lure	n/a	n/a	n/a	1
5.476	0.483323406	AUTOCRAT	lure	n/a	n/a	n/a	1
5.959	0.599997725	FOLLY	lure	n/a	n/a	n/a	1
6.559	0.54998998	PREDICTION	lure	n/a	n/a	n/a	1
7.109	0.333328078	SUPPRESSOR	lure	n/a	n/a	n/a	1
7.443	2.016641255	CONE	long	n/a	n/a	n/a	1
9.459	0.383325886	SACRILEGE	lure	n/a	n/a	n/a	1
9.843	0.666656884	CHALICE	lure	n/a	n/a	n/a	1
10.509	0.716656458	EYELID	lure	n/a	n/a	n/a	1
11.226	0.749990855	TECHNOLOGY	lure	n/a	n/a	n/a	1
11.976	0.383322782	DYNAMO	lure	n/a	n/a	n/a	1
12.359	0.333333307	BLOWPIPE	lure	n/a	n/a	n/a	1
12.693	0.683382702	MEMENTO	lure	n/a	n/a	n/a	1
13.376	0.616657204	INNOCENCE	lure	n/a	n/a	n/a	1
13.993	0.699932392	WALKER	lure	n/a	n/a	n/a	1
14.693	0.450053664	RELAXATION	lure	n/a	n/a	n/a	1
15.143	0.733264956	FRIAR	lure	n/a	n/a	n/a	1
15.876	2.049968132	MAST	long	n/a	n/a	n/a	1
17.926	0.350053481	FIREDOG	lure	n/a	n/a	n/a	1
18.276	0.649987749	INFORMER	lure	n/a	n/a	n/a	1
18.926	0.749938477	LEDGER	lure	n/a	n/a	n/a	1
19.676	0.649990106	HANDICRAFT	lure	n/a	n/a	n/a	1
20.326	0.333382917	DORM	lure	n/a	n/a	n/a	1
20.659	0.483326809	WIZARDRY	lure	n/a	n/a	n/a	1
21.143	0.666602749	DRIVER	lure	n/a	n/a	n/a	1
21.809	0.36666024	WINGSPAN	lure	n/a	n/a	n/a	1
22.176	0.333382391	HOOPLA	lure	n/a	n/a	n/a	1
22.509	0.583269929	IMBECILE	lure	n/a	n/a	n/a	1
23.093	0.616654212	WINDSTORM	lure	n/a	n/a	n/a	1
23.709	0.483336041	ABILITY	lure	n/a	n/a	n/a	1
24.193	0.616652375	CORK	short	n/a	n/a	n/a	1
24.809	0.317177379	INCIVILITY	lure	n/a	n/a	n/a	1
25.126	0.366149046	SHRUB	lure	n/a	n/a	n/a	1
25.492	0.749987999	SHELLSHOCK	lure	n/a	n/a	n/a	1
26.242	0.500049322	APOTHECARY	lure	n/a	n/a	n/a	1
26.743	0.599936916	SHIRTWAIST	lure	n/a	n/a	n/a	1
27.342	0.433381617	DEPTH	lure	n/a	n/a	n/a	1
27.776	0.749935404	LUSTRE	lure	n/a	n/a	n/a	1
28.526	0.318464374	LONGSHIP	lure	n/a	n/a	n/a	1
28.844	0.61656476	MARIGOLD	lure	n/a	n/a	n/a	1
29.461	0.331684576	CEDAR	lure	n/a	n/a	n/a	1
29.792	0.716590706	PESSIMISM	lure	n/a	n/a	n/a	1
30.509	0.701422638	CLASSICISM	lure	n/a	n/a	n/a	1
31.211	0.46556713	MACE	lure	n/a	n/a	n/a	1
31.676	0.332988476	INADEQUACY	lure	n/a	n/a	n/a	1
32.009	1.016651809	BLACKBERRY	fruit	718	2	2	1
33.026	0.499993889	WINDER	lure	n/a	n/a	n/a	1
33.526	0.599991412	CLAPBOARD	lure	n/a	n/a	n/a	1
34.126	0.566715612	HARDWOOD	lure	n/a	n/a	n/a	1
34.692	0.435553484	TOXIN	lure	n/a	n/a	n/a	1
35.128	0.697703966	COLLATERAL	lure	n/a	n/a	n/a	1
35.826	0.483388927	DUKE	lure	n/a	n/a	n/a	1
36.309	0.433268734	PUEBLO	lure	n/a	n/a	n/a	1
36.742	0.416662597	CABIN	lure	n/a	n/a	n/a	1
37.159	0.666654932	POLITICIAN	lure	n/a	n/a	n/a	1
37.826	0.483382897	ANTIPATHY	lure	n/a	n/a	n/a	1
38.309	0.701844173	PICKER	lure	n/a	n/a	n/a	1
39.011	0.769576935	ABOLITION	lure	n/a	n/a	n/a	1
39.78	0.645215513	JUBILEE	lure	n/a	n/a	n/a	1
40.426	0.61660446	CURB	short	n/a	n/a	n/a	1
41.042	0.566710062	TRUNK	lure	n/a	n/a	n/a	1
41.609	0.649932334	PAYMENT	lure	n/a	n/a	n/a	1
42.259	0.433387321	LIFEBOAT	lure	n/a	n/a	n/a	1
42.692	0.633270575	RITUALISM	lure	n/a	n/a	n/a	1
43.326	0.316658198	TESTICLE	lure	n/a	n/a	n/a	1
43.642	0.46672118	ARTIST	lure	n/a	n/a	n/a	1
44.109	0.749933291	PARASOL	lure	n/a	n/a	n/a	1
44.859	0.566655658	FREELOADER	lure	n/a	n/a	n/a	1
45.426	0.466662645	DAIQUIRI	lure	n/a	n/a	n/a	1
45.892	0.399993076	FIREBOX	lure	n/a	n/a	n/a	1
46.292	0.766658311	LOOKUP	lure	n/a	n/a	n/a	1
47.059	0.699987636	SHOWCASE	lure	n/a	n/a	n/a	1
47.759	0.466722899	NIGHTSHADE	lure	n/a	n/a	n/a	1
48.226	1.016585291	LIME	fruit	597	2	2	1
49.242	0.483332953	ANTIQUITY	lure	n/a	n/a	n/a	1
49.725	0.466658797	MIDAIR	lure	n/a	n/a	n/a	1
50.192	0.499994204	GOOSE	lure	n/a	n/a	n/a	1
50.692	0.76665316	WRONGDOER	lure	n/a	n/a	n/a	1
51.459	0.68332787	THERAPY	lure	n/a	n/a	n/a	1
52.142	0.633322958	WHOOPEE	lure	n/a	n/a	n/a	1
52.775	0.516659399	HAYWIRE	lure	n/a	n/a	n/a	1
53.292	0.416740926	FREEBIE	lure	n/a	n/a	n/a	1
53.709	0.352434853	UNDERTONE	lure	n/a	n/a	n/a	1
54.061	0.464186564	SLAW	lure	n/a	n/a	n/a	1
54.525	0.666610637	WAGON	lure	n/a	n/a	n/a	1
55.192	0.616732853	ASPIRIN	lure	n/a	n/a	n/a	1
55.809	0.499916543	RETROSPECT	lure	n/a	n/a	n/a	1
56.309	0.39999068	PYTHON	lure	n/a	n/a	n/a	1
56.709	2.016645821	BRUSH	long	n/a	n/a	n/a	1
58.725	0.683322855	ASPHALT	lure	n/a	n/a	n/a	1
59.409	0.566658864	CUPFUL	lure	n/a	n/a	n/a	1
59.975	0.450103511	INHIBITOR	lure	n/a	n/a	n/a	1
60.425	0.383216325	EFFICACY	lure	n/a	n/a	n/a	1
60.809	0.749992118	GRIEF	lure	n/a	n/a	n/a	1
61.559	0.383323763	FAREWELL	lure	n/a	n/a	n/a	1
61.942	0.650052399	WORKROOM	lure	n/a	n/a	n/a	1
62.592	0.63326054	CONFORMITY	lure	n/a	n/a	n/a	1
63.225	0.450000298	PEDICURE	lure	n/a	n/a	n/a	1
63.675	0.76665393	PROTRACTOR	lure	n/a	n/a	n/a	1
64.442	0.666657882	FLAPJACK	lure	n/a	n/a	n/a	1
65.109	0.616659583	LIGHT	short	n/a	n/a	n/a	1
65.725	0.649984742	ABBEY	lure	n/a	n/a	n/a	1
66.375	0.399996139	JAILBREAK	lure	n/a	n/a	n/a	1
66.775	0.499997535	MISMATCH	lure	n/a	n/a	n/a	1
67.275	0.716657678	YELLER	lure	n/a	n/a	n/a	1
67.992	0.69998533	RINK	lure	n/a	n/a	n/a	1
68.692	0.4833286	INVOCATION	lure	n/a	n/a	n/a	1
69.175	0.566657474	ARMBAND	lure	n/a	n/a	n/a	1
69.742	0.766656674	INCENTIVE	lure	n/a	n/a	n/a	1
70.509	0.533383031	DETECTOR	lure	n/a	n/a	n/a	1
71.042	0.716596217	KARATE	lure	n/a	n/a	n/a	1
71.759	0.416722063	GRINDSTONE	lure	n/a	n/a	n/a	1
72.175	0.416604457	RECOURSE	lure	n/a	n/a	n/a	1
72.592	0.650038178	DIMENSION	lure	n/a	n/a	n/a	1
73.242	0.366660601	CUSTOMER	lure	n/a	n/a	n/a	1
73.609	2.016592678	MACHINE	long	n/a	n/a	n/a	1
75.625	0.399992976	PERFUSION	lure	n/a	n/a	n/a	1
76.025	0.733321016	DIESEL	lure	n/a	n/a	n/a	1
76.758	0.349994328	OPTICIAN	lure	n/a	n/a	n/a	1
77.108	0.34999899	COPYWRITER	lure	n/a	n/a	n/a	1
77.458	0.716654367	DISTEMPER	lure	n/a	n/a	n/a	1
78.175	0.516661121	DISGRACE	lure	n/a	n/a	n/a	1
78.692	0.749982308	TRUMPETER	lure	n/a	n/a	n/a	1
79.442	0.333337387	FLOWERPOT	lure	n/a	n/a	n/a	1
79.775	0.700046022	CORNFIELD	lure	n/a	n/a	n/a	1
80.475	0.533265689	COTTONSEED	lure	n/a	n/a	n/a	1
81.008	0.433327509	OXIDE	lure	n/a	n/a	n/a	1
81.442	0.749987035	RETRIAL	lure	n/a	n/a	n/a	1
82.192	2.01664362	MONSOON	long	n/a	n/a	n/a	1
84.208	0.76665995	DOUGH	lure	n/a	n/a	n/a	1
84.975	0.549986108	OILMAN	lure	n/a	n/a	n/a	1
85.525	0.500038119	GUST	lure	n/a	n/a	n/a	1
86.025	0.349951177	TEMPO	lure	n/a	n/a	n/a	1
86.375	0.383327949	PANTHEON	lure	n/a	n/a	n/a	1
86.758	0.649993767	LIGHTHOUSE	lure	n/a	n/a	n/a	1
87.408	0.583322523	EMERGENCE	lure	n/a	n/a	n/a	1
87.992	0.483321152	MATERNITY	lure	n/a	n/a	n/a	1
88.475	0.666710913	EXCEPTION	lure	n/a	n/a	n/a	1
89.142	0.449995751	STOVE	lure	n/a	n/a	n/a	1
89.592	0.333363725	RUNWAY	lure	n/a	n/a	n/a	1
89.925	0.583239633	SLINGSHOT	lure	n/a	n/a	n/a	1
90.508	0.616653526	DRILL	short	n/a	n/a	n/a	1
91.125	0.549993415	COMMODORE	lure	n/a	n/a	n/a	1
91.675	0.633327482	CONTAINER	lure	n/a	n/a	n/a	1
92.308	0.583325433	HAIRDO	lure	n/a	n/a	n/a	1
92.892	0.349995834	RUBBER	lure	n/a	n/a	n/a	1
93.242	0.36665929	SPHINX	lure	n/a	n/a	n/a	1
93.608	0.733320943	UMPIRE	lure	n/a	n/a	n/a	1
94.342	0.566663143	SHRINKAGE	lure	n/a	n/a	n/a	1
94.908	0.533377772	BASIN	lure	n/a	n/a	n/a	1
95.442	0.349939898	LUNACY	lure	n/a	n/a	n/a	1
95.792	0.750049671	GOODWILL	lure	n/a	n/a	n/a	1
96.542	0.666599449	ASSET	lure	n/a	n/a	n/a	1
97.208	0.616722984	LANTERN	lure	n/a	n/a	n/a	1
97.825	0.333263609	SUMMATION	lure	n/a	n/a	n/a	1
98.158	0.766656985	DISMISSAL	lure	n/a	n/a	n/a	1
98.925	0.616658886	RAMP	short	n/a	n/a	n/a	1
99.541	0.600036517	LEDGE	lure	n/a	n/a	n/a	1
100.141	0.483281451	PATRON	lure	n/a	n/a	n/a	1
100.625	0.416658622	MISCOUNT	lure	n/a	n/a	n/a	1
101.041	0.43332811	CONVENTION	lure	n/a	n/a	n/a	1
101.475	0.566658514	ANCESTOR	lure	n/a	n/a	n/a	1
102.041	0.733322434	CRUISER	lure	n/a	n/a	n/a	1
102.775	0.349996574	SUSPENDER	lure	n/a	n/a	n/a	1
103.125	0.61671269	BULL	lure	n/a	n/a	n/a	1
103.741	0.649936166	BEDSTEAD	lure	n/a	n/a	n/a	1
104.391	0.466658523	LIQUIDITY	lure	n/a	n/a	n/a	1
104.858	0.466701343	DRUNKARD	lure	n/a	n/a	n/a	1
105.325	0.583332731	COWARDICE	lure	n/a	n/a	n/a	1
105.908	0.516613417	GIBLET	lure	n/a	n/a	n/a	1
106.425	0.749989612	ORTHODOXY	lure	n/a	n/a	n/a	1
107.175	0.552979051	BEECH	lure	n/a	n/a	n/a	1
107.728	2.014599251	ARROW	long	n/a	n/a	n/a	1
109.742	0.349045296	ALABASTER	lure	n/a	n/a	n/a	1
110.091	0.650036517	SUNDIAL	lure	n/a	n/a	n/a	1
110.741	0.649999454	BREEDER	lure	n/a	n/a	n/a	1
111.391	0.39993969	BOTTLENECK	lure	n/a	n/a	n/a	1
111.791	0.649990973	RIFT	lure	n/a	n/a	n/a	1
112.441	0.683321215	TIC	lure	n/a	n/a	n/a	1
113.125	0.533328585	EARPIECE	lure	n/a	n/a	n/a	1
113.658	0.516658249	IMMINENCE	lure	n/a	n/a	n/a	1
114.175	0.53337513	EXCITEMENT	lure	n/a	n/a	n/a	1
114.708	0.733269812	SOUNDTRACK	lure	n/a	n/a	n/a	1
115.441	0.74999525	SUSHI	lure	n/a	n/a	n/a	1
116.191	2.016635151	RAVINE	long	n/a	n/a	n/a	1
118.208	0.600052304	BEDTIME	lure	n/a	n/a	n/a	1
118.808	0.735377303	KINGDOM	lure	n/a	n/a	n/a	1
119.543	0.364549341	METEOR	lure	n/a	n/a	n/a	1
119.908	0.716714966	FINERY	lure	n/a	n/a	n/a	1
120.625	0.69993316	REUNION	lure	n/a	n/a	n/a	1
121.324	0.416661612	BOY	lure	n/a	n/a	n/a	1
121.741	0.316718913	PATRIOTISM	lure	n/a	n/a	n/a	1
122.058	0.516600855	EXPEDITION	lure	n/a	n/a	n/a	1
122.574	0.333327988	HOSIERY	lure	n/a	n/a	n/a	1
122.908	0.45005241	AFTERLIFE	lure	n/a	n/a	n/a	1
123.358	0.383327691	TRIPOD	lure	n/a	n/a	n/a	1
123.741	0.616659645	RELOCATION	lure	n/a	n/a	n/a	1
124.358	1.049984836	STRAWBERRY	fruit	625	2	2	1
125.408	0.583703505	SYNERGISM	lure	n/a	n/a	n/a	1
125.992	0.749553021	DECISION	lure	n/a	n/a	n/a	1
126.741	0.399991345	HOUR	lure	n/a	n/a	n/a	1
127.141	0.433325705	ELK	lure	n/a	n/a	n/a	1
127.574	0.333388175	SILVERFISH	lure	n/a	n/a	n/a	1
127.908	0.516604256	VELOCITY	lure	n/a	n/a	n/a	1
128.424	0.633326241	CRYPTOGRAM	lure	n/a	n/a	n/a	1
129.058	0.666651859	CARDBOARD	lure	n/a	n/a	n/a	1
129.724	0.716659489	BOASTER	lure	n/a	n/a	n/a	1
130.441	0.633324131	PROCESSOR	lure	n/a	n/a	n/a	1
131.074	0.766658859	BREAKAWAY	lure	n/a	n/a	n/a	1
131.841	0.433325592	CHUMP	lure	n/a	n/a	n/a	1
132.274	1.016654854	STRAWBERRY	fruit	604	2	2	1
133.291	0.699984367	MEDALLIST	lure	n/a	n/a	n/a	1
133.991	0.48332884	FOOTWORK	lure	n/a	n/a	n/a	1
134.474	0.466656635	PERCENTAGE	lure	n/a	n/a	n/a	1
134.941	0.334575551	TASKMASTER	lure	n/a	n/a	n/a	1
135.276	0.651571142	VINE	lure	n/a	n/a	n/a	1
135.927	0.347173596	SNOBBERY	lure	n/a	n/a	n/a	1
136.274	0.449991411	BODYGUARD	lure	n/a	n/a	n/a	1
136.724	0.433328178	SHOWMAN	lure	n/a	n/a	n/a	1
137.158	0.349995862	COLE	lure	n/a	n/a	n/a	1
137.508	0.566659167	BARRACUDA	lure	n/a	n/a	n/a	1
138.074	0.749985235	JUDICIARY	lure	n/a	n/a	n/a	1
138.824	0.633325185	RAILHEAD	lure	n/a	n/a	n/a	1
139.458	0.566657719	WHISKER	lure	n/a	n/a	n/a	1
140.024	0.533388043	LARYNX	lure	n/a	n/a	n/a	1
140.558	1.016593846	WATERMELON	fruit	n/a	n/a	2	0
141.574	0.716659754	CHISEL	lure	n/a	n/a	n/a	1
142.291	0.499989761	HAIRPIN	lure	n/a	n/a	n/a	1
142.791	0.483328189	MANDARIN	lure	n/a	n/a	n/a	1
143.274	0.616718766	PUPPET	lure	253	2	n/a	0
143.891	0.449933491	CONFESSION	lure	n/a	n/a	n/a	1
144.341	0.433325085	PATCHWORK	lure	n/a	n/a	n/a	1
144.774	0.566714597	CARVER	lure	n/a	n/a	n/a	1
145.341	0.600000061	ANNOYANCE	lure	n/a	n/a	n/a	1
145.941	0.683260837	NATURALISM	lure	n/a	n/a	n/a	1
146.624	0.766656396	PARKHOUSE	lure	n/a	n/a	n/a	1
147.391	0.683324646	SETBACK	lure	n/a	n/a	n/a	1
148.074	0.766652667	SUSPICION	lure	n/a	n/a	n/a	1
148.841	0.616661508	DEPOT	short	n/a	n/a	n/a	1
149.457	0.549992516	TORTILLA	lure	n/a	n/a	n/a	1
150.007	0.366659079	VAPOR	lure	n/a	n/a	n/a	1
150.374	0.416660547	JUROR	lure	n/a	n/a	n/a	1
150.791	0.48332722	BEARER	lure	n/a	n/a	n/a	1
151.274	0.683380203	VENERATION	lure	n/a	n/a	n/a	1
151.957	0.616660597	SETTLEMENT	lure	n/a	n/a	n/a	1
152.574	0.766596765	DISC	lure	n/a	n/a	n/a	1
153.341	0.699990425	SEAGULL	lure	n/a	n/a	n/a	1
154.041	0.749987748	CONSONANCE	lure	n/a	n/a	n/a	1
154.791	0.733327717	UNDERWOOD	lure	n/a	n/a	n/a	1
155.524	0.533322938	ADVERTISER	lure	n/a	n/a	n/a	1
156.057	0.500051723	SPOTTER	lure	n/a	n/a	n/a	1
156.557	0.516599816	TOMAHAWK	lure	n/a	n/a	n/a	1
157.074	0.616659816	ASHES	short	n/a	n/a	n/a	1
157.691	0.466658492	DEPORTMENT	lure	n/a	n/a	n/a	1
158.157	0.537963287	GOAL	lure	n/a	n/a	n/a	1
158.695	0.563568314	ELATION	lure	n/a	n/a	n/a	1
159.259	0.398493842	LEEK	lure	n/a	n/a	n/a	1
159.657	0.685328485	GIRAFFE	lure	n/a	n/a	n/a	1
160.343	0.681331496	THERMOSTAT	lure	n/a	n/a	n/a	1
161.024	0.499931849	PALMETTO	lure	n/a	n/a	n/a	1
161.524	0.350065661	HARLOT	lure	n/a	n/a	n/a	1
161.874	0.549920524	PRUDENCE	lure	n/a	n/a	n/a	1
162.424	0.70005046	FOREARM	lure	n/a	n/a	n/a	1
163.124	0.666601765	AMBIGUITY	lure	n/a	n/a	n/a	1
163.791	0.516716444	RIDER	lure	n/a	n/a	n/a	1
164.307	0.333321581	SUFFERER	lure	n/a	n/a	n/a	1
164.641	0.350001191	INCUMBENCY	lure	n/a	n/a	n/a	1
164.991	0.683265648	CULT	lure	n/a	n/a	n/a	1
165.674	2.016650466	SAIL	long	n/a	n/a	n/a	1
167.691	0.450053025	BLOCKHOUSE	lure	n/a	n/a	n/a	1
168.141	0.466592197	SKIMMER	lure	n/a	n/a	n/a	1
168.607	0.649990179	MEMOIR	lure	n/a	n/a	n/a	1
169.257	0.39999389	MEN	lure	n/a	n/a	n/a	1
169.657	0.499992997	SATIN	lure	n/a	n/a	n/a	1
170.157	0.366707139	DOGMATISM	lure	n/a	n/a	n/a	1
170.524	0.601723754	DUPLEX	lure	n/a	n/a	n/a	1
171.126	0.66488034	LIFETIME	lure	n/a	n/a	n/a	1
171.79	0.516656791	DIFFERENCE	lure	n/a	n/a	n/a	1
172.307	0.683324123	PERMISSION	lure	n/a	n/a	n/a	1
172.99	0.616710271	VALVE	lure	n/a	n/a	n/a	1
173.607	0.650008171	OPTIMIST	lure	n/a	n/a	n/a	1
174.257	0.616590729	FOIL	short	n/a	n/a	n/a	1
174.874	0.633324673	LIAISON	lure	n/a	n/a	n/a	1
175.507	0.31671977	IMAGERY	lure	n/a	n/a	n/a	1
175.824	0.516647605	WATCHMAN	lure	n/a	n/a	n/a	1
176.34	0.38327859	BACKDROP	lure	n/a	n/a	n/a	1
176.724	0.483331283	ROADBLOCK	lure	n/a	n/a	n/a	1
177.207	0.600048695	WOODCUT	lure	n/a	n/a	n/a	1
177.807	0.383332493	LANDSLIDE	lure	n/a	n/a	n/a	1
178.19	0.316643817	OLIGARCHY	lure	n/a	n/a	n/a	1
178.507	0.550002587	SCOREBOARD	lure	n/a	n/a	n/a	1
179.057	0.566605463	NUB	lure	n/a	n/a	n/a	1
179.624	0.383326262	PROCESSION	lure	n/a	n/a	n/a	1
180.007	0.399994691	PRESCHOOL	lure	n/a	n/a	n/a	1
180.407	0.633373855	MYSTERY	lure	n/a	n/a	n/a	1
181.04	0.533335965	HEMLINE	lure	n/a	n/a	n/a	1
181.574	0.633360948	TANKER	lure	n/a	n/a	n/a	1
182.207	0.383292518	VIAL	lure	n/a	n/a	n/a	1
182.59	0.616598161	DIRT	short	n/a	n/a	n/a	1
183.207	0.649992307	GROVE	lure	n/a	n/a	n/a	1
183.857	0.616658407	WATERMILL	lure	n/a	n/a	n/a	1
184.474	0.69998548	SUBSOIL	lure	n/a	n/a	n/a	1
185.174	0.566706479	LETDOWN	lure	n/a	n/a	n/a	1
185.74	0.733280301	COTTAGE	lure	n/a	n/a	n/a	1
186.474	0.616655723	ANARCHY	lure	n/a	n/a	n/a	1
187.09	0.616659974	TAMBOURINE	lure	n/a	n/a	n/a	1
187.707	0.633380203	WINE	lure	n/a	n/a	n/a	1
188.34	0.39998927	VIXEN	lure	n/a	n/a	n/a	1
188.74	0.566659821	EYELET	lure	n/a	n/a	n/a	1
189.307	0.616605342	HEROISM	lure	n/a	n/a	n/a	1
189.924	0.65118803	AMAZEMENT	lure	n/a	n/a	n/a	1
190.575	0.615462182	TIRE	short	n/a	n/a	n/a	1
191.19	0.616652978	SONGBIRD	lure	n/a	n/a	n/a	1
191.807	0.499994578	FORMAT	lure	n/a	n/a	n/a	1
192.307	0.683318677	PROPRIETY	lure	n/a	n/a	n/a	1
192.99	0.566718671	KANGAROO	lure	n/a	n/a	n/a	1
193.557	0.583326626	SHOPPER	lure	n/a	n/a	n/a	1
194.14	0.599991027	GODPARENT	lure	n/a	n/a	n/a	1
194.74	0.449936836	MILDEW	lure	n/a	n/a	n/a	1
195.19	0.683326055	PATIO	lure	n/a	n/a	n/a	1
195.873	0.733368302	KINFOLK	lure	n/a	n/a	n/a	1
196.607	0.433280548	EXPORT	lure	n/a	n/a	n/a	1
197.04	0.449987972	STOKER	lure	n/a	n/a	n/a	1
197.49	0.566667124	ENTHUSIASM	lure	n/a	n/a	n/a	1
198.057	0.633321474	NEWSPAPER	lure	n/a	n/a	n/a	1
198.69	1.016751561	BLUEBERRY	fruit	661	2	2	1
199.707	0.349894658	ALTAR	lure	n/a	n/a	n/a	1
200.057	0.733324305	HUMILITY	lure	n/a	n/a	n/a	1
200.79	0.433325745	INHUMANITY	lure	n/a	n/a	n/a	1
201.223	0.449992461	INSISTENCE	lure	n/a	n/a	n/a	1
201.673	0.350001656	SMALLPOX	lure	n/a	n/a	n/a	1
202.023	0.633324211	SANDBAR	lure	n/a	n/a	n/a	1
202.657	0.349994654	RESUMPTION	lure	n/a	n/a	n/a	1
203.007	0.716653535	CHOIRBOY	lure	n/a	n/a	n/a	1
203.723	0.533330201	TREND	lure	n/a	n/a	n/a	1
204.257	0.516658532	FOREHEAD	lure	n/a	n/a	n/a	1
204.773	0.383325413	CUSTODIAN	lure	n/a	n/a	n/a	1
205.157	0.803388273	SAUSAGE	lure	n/a	n/a	n/a	1
205.96	0.463260816	PRESERVER	lure	n/a	n/a	n/a	1
206.423	0.71665468	MADMAN	lure	n/a	n/a	n/a	1
207.14	2.016646371	CLUB	long	n/a	n/a	n/a	1
209.157	0.483322708	ASCENSION	lure	n/a	n/a	n/a	1
209.64	0.349991476	MANICURIST	lure	n/a	n/a	n/a	1
209.99	0.666661426	MOBILITY	lure	n/a	n/a	n/a	1
210.657	0.316717524	SORORITY	lure	n/a	n/a	n/a	1
210.973	0.666641852	ROMP	lure	n/a	n/a	n/a	1
211.64	0.566750672	GEYSER	lure	n/a	n/a	n/a	1
212.207	0.616585728	BLOWGUN	lure	n/a	n/a	n/a	1
212.823	0.51667625	HUMANISM	lure	n/a	n/a	n/a	1
213.34	0.7333322	DISCOURSE	lure	n/a	n/a	n/a	1
214.073	0.633236335	GENERATION	lure	n/a	n/a	n/a	1
214.707	0.469679684	REFERENCE	lure	n/a	n/a	n/a	1
215.176	0.396977722	PEACE	lure	n/a	n/a	n/a	1
215.573	2.016638591	PUTTY	long	n/a	n/a	n/a	1
217.59	0.516657261	ENVELOPE	lure	n/a	n/a	n/a	1
218.106	0.316717767	SPLOTCH	lure	n/a	n/a	n/a	1
218.423	0.616656124	YARDSTICK	lure	n/a	n/a	n/a	1
219.04	0.399996307	HOBBY	lure	n/a	n/a	n/a	1
219.44	0.766602737	ATTIRE	lure	n/a	n/a	n/a	1
220.206	0.450029345	PONY	lure	n/a	n/a	n/a	1
220.656	0.366678967	PARKWAY	lure	n/a	n/a	n/a	1
221.023	0.401274619	LOUGH	lure	n/a	n/a	n/a	1
221.424	0.619566804	NOSTRIL	lure	n/a	n/a	n/a	1
222.044	0.462471744	DISPOSAL	lure	n/a	n/a	n/a	1
222.506	0.366606754	RAVEL	lure	n/a	n/a	n/a	1
222.873	0.350050218	COPYBOOK	lure	n/a	n/a	n/a	1
223.223	0.416606196	SPITFIRE	lure	n/a	n/a	n/a	1
223.64	0.350048862	RESCRIPT	lure	n/a	n/a	n/a	1
223.99	0.399940073	WICKET	lure	n/a	n/a	n/a	1
224.39	0.34999052	ULTIMATUM	lure	n/a	n/a	n/a	1
224.74	0.31672023	GRADER	lure	n/a	n/a	n/a	1
225.056	0.483268668	MEAT	lure	n/a	n/a	n/a	1
225.54	0.349996308	FLAIR	lure	n/a	n/a	n/a	1
225.89	0.58332478	ROSEMARY	lure	n/a	n/a	n/a	1
226.473	0.350054605	FOUNDATION	lure	n/a	n/a	n/a	1
226.823	n/a	IGUANA	lure	n/a	n/a	n/a	1
238.025	0.681572909	PRETENCE	lure	n/a	n/a	n/a	1
238.706	0.633327562	MARMALADE	lure	n/a	n/a	n/a	1
239.34	0.666658755	FALLACY	lure	n/a	n/a	n/a	1
240.006	0.583319229	OUTBREAK	lure	n/a	n/a	n/a	1
240.589	0.599995451	PROSE	lure	n/a	n/a	n/a	1
241.189	0.733320592	SHIPMENT	lure	n/a	n/a	n/a	1
241.923	1.016653946	PLUM	fruit	684	2	2	1
242.939	0.533371534	GOSPEL	lure	n/a	n/a	n/a	1
243.473	0.516613433	CHINAWARE	lure	n/a	n/a	n/a	1
243.989	0.66665664	DROPLET	lure	n/a	n/a	n/a	1
244.656	0.669135832	DISPERSAL	lure	n/a	n/a	n/a	1
245.325	0.497516329	TARANTULA	lure	n/a	n/a	n/a	1
245.823	0.366657669	MONEY	lure	n/a	n/a	n/a	1
246.189	0.570191174	JOURNALISM	lure	n/a	n/a	n/a	1
246.76	0.630794992	COMPLIMENT	lure	n/a	n/a	n/a	1
247.39	0.682388505	AMMUNITION	lure	n/a	n/a	n/a	1
248.073	0.533263038	SANDALWOOD	lure	n/a	n/a	n/a	1
248.606	0.649992565	WART	lure	n/a	n/a	n/a	1
249.256	0.416655736	BRIDE	lure	n/a	n/a	n/a	1
249.673	0.666657136	FOIL	short	n/a	n/a	n/a	1
250.339	0.420938139	ABUNDANCE	lure	n/a	n/a	n/a	1
250.76	0.530790705	SAC	lure	n/a	n/a	n/a	1
251.291	0.731584782	DAFFODIL	lure	n/a	n/a	n/a	1
252.023	0.483370899	CORPORAL	lure	n/a	n/a	n/a	1
252.506	0.73327648	EXEMPTION	lure	n/a	n/a	n/a	1
253.239	0.433330664	SPACESHIP	lure	n/a	n/a	n/a	1
253.673	0.733383771	BUCKSHOT	lure	n/a	n/a	n/a	1
254.406	0.683319147	HALFBACK	lure	n/a	n/a	n/a	1
255.089	0.599994693	EQUATION	lure	n/a	n/a	n/a	1
255.689	0.404176227	FUR	lure	n/a	n/a	n/a	1
256.094	0.379085452	BYPRODUCT	lure	n/a	n/a	n/a	1
256.473	0.566714875	CARTOON	lure	n/a	n/a	n/a	1
257.039	0.333273601	HARMONICA	lure	n/a	n/a	n/a	1
257.373	0.333327679	MAINSPRING	lure	n/a	n/a	n/a	1
257.706	0.616657919	LIGHT	short	n/a	n/a	n/a	1
258.323	0.31672195	EMBASSY	lure	n/a	n/a	n/a	1
258.639	0.683267155	WEB	lure	n/a	n/a	n/a	1
259.323	0.316656162	CANAL	lure	n/a	n/a	n/a	1
259.639	0.733321603	BURGER	lure	n/a	n/a	n/a	1
260.373	0.399996102	BLASPHEMY	lure	n/a	n/a	n/a	1
260.773	0.383328392	ATTRIBUTE	lure	n/a	n/a	n/a	1
261.156	0.616658931	PARAKEET	lure	n/a	n/a	n/a	1
261.773	0.399995229	VERTIGO	lure	n/a	n/a	n/a	1
262.173	0.550039943	GUIDEBOOK	lure	n/a	n/a	n/a	1
262.723	0.733274585	RESPITE	lure	n/a	n/a	n/a	1
263.456	0.566660538	FEAT	lure	n/a	n/a	n/a	1
264.022	0.549990181	MODERNISM	lure	n/a	n/a	n/a	1
264.572	0.316662624	SEGMENT	lure	n/a	n/a	n/a	1
264.889	0.46665742	REMNANT	lure	n/a	n/a	n/a	1
265.356	0.583384541	ACCOMPLICE	lure	n/a	n/a	n/a	1
265.939	2.01658494	CONE	long	n/a	n/a	n/a	1
267.956	0.566658253	BASKETBALL	lure	n/a	n/a	n/a	1
268.522	0.583324811	SUNSHINE	lure	n/a	n/a	n/a	1
269.106	0.533384537	BRANDY	lure	n/a	n/a	n/a	1
269.639	0.683320503	SCROOGE	lure	n/a	n/a	n/a	1
270.322	0.735493527	GUMDROP	lure	n/a	n/a	n/a	1
271.058	0.747760217	DAREDEVIL	lure	n/a	n/a	n/a	1
271.806	0.316660741	NONSENSE	lure	n/a	n/a	n/a	1
272.122	0.683326454	CONTORTION	lure	n/a	n/a	n/a	1
272.806	0.38337729	MIXER	lure	n/a	n/a	n/a	1
273.189	0.549942937	REVERSION	lure	n/a	n/a	n/a	1
273.739	0.733325116	POLYGAMY	lure	n/a	n/a	n/a	1
274.472	1.01665122	CHERRY	fruit	631	2	2	1
275.489	0.699988822	GALLON	lure	n/a	n/a	n/a	1
276.189	0.583328598	IMPATIENCE	lure	n/a	n/a	n/a	1
276.772	0.399994076	GEOLOGIST	lure	n/a	n/a	n/a	1
277.172	0.36666034	BOWLER	lure	n/a	n/a	n/a	1
277.539	0.416669309	CANTEEN	lure	n/a	n/a	n/a	1
277.956	0.633316475	OCTAGON	lure	n/a	n/a	n/a	1
278.589	0.533320218	MISTLETOE	lure	n/a	n/a	n/a	1
279.122	0.683329243	CANNONBALL	lure	n/a	n/a	n/a	1
279.806	0.683322606	BARROW	lure	n/a	n/a	n/a	1
280.489	0.366663129	STEWARD	lure	n/a	n/a	n/a	1
280.856	0.683322544	COMEDIAN	lure	n/a	n/a	n/a	1
281.539	0.383328397	POLYESTER	lure	n/a	n/a	n/a	1
281.922	0.349994574	MENAGERIE	lure	n/a	n/a	n/a	1
282.272	0.433324358	KNOTHOLE	lure	n/a	n/a	n/a	1
282.706	0.616664272	DEPOT	short	n/a	n/a	n/a	1
283.322	0.383325611	MOONSHINE	lure	n/a	n/a	n/a	1
283.706	0.5999857	ADAPTATION	lure	n/a	n/a	n/a	1
284.306	0.649991336	SIDECAR	lure	n/a	n/a	n/a	1
284.956	0.333329033	COVERLET	lure	n/a	n/a	n/a	1
285.289	0.383337084	VANTAGE	lure	n/a	n/a	n/a	1
285.672	0.383326981	STEPFATHER	lure	n/a	n/a	n/a	1
286.056	0.599983121	SCUBA	lure	n/a	n/a	n/a	1
286.656	0.733323485	MISDEAL	lure	n/a	n/a	n/a	1
287.389	0.333335805	PEDDLER	lure	n/a	n/a	n/a	1
287.722	0.4166625	LABORATORY	lure	n/a	n/a	n/a	1
288.139	0.484525107	SUn/aAY	lure	n/a	n/a	n/a	1
288.623	0.582180067	ANIMALISM	lure	n/a	n/a	n/a	1
289.206	0.616603795	PINKIE	lure	n/a	n/a	n/a	1
289.822	0.516653389	BIGAMY	lure	n/a	n/a	n/a	1
290.339	0.450000446	FIREBALL	lure	n/a	n/a	n/a	1
290.789	2.0166392	ARROW	long	n/a	n/a	n/a	1
292.805	0.616656157	AEROSPACE	lure	n/a	n/a	n/a	1
293.422	0.549984187	TABLESPOON	lure	n/a	n/a	n/a	1
293.972	0.583332359	MILKMAID	lure	n/a	n/a	n/a	1
294.555	0.683417528	OMELETTE	lure	n/a	n/a	n/a	1
295.239	0.483227819	CORRUPTER	lure	n/a	n/a	n/a	1
295.722	0.350054253	SPATIALITY	lure	n/a	n/a	n/a	1
296.072	0.449932998	MODERNITY	lure	n/a	n/a	n/a	1
296.522	0.566658683	MAMBA	lure	n/a	n/a	n/a	1
297.089	0.699989918	PARTICIPLE	lure	n/a	n/a	n/a	1
297.789	0.349995915	BLUEBELL	lure	n/a	n/a	n/a	1
298.139	0.635705293	AVOCADO	lure	468	2	n/a	0
298.774	0.433563307	CRUCIFIX	lure	n/a	n/a	n/a	1
299.208	2.014026678	CLUB	long	n/a	n/a	n/a	1
301.222	0.400038643	LOCATION	lure	n/a	n/a	n/a	1
301.622	0.699949501	MECHANISM	lure	n/a	n/a	n/a	1
302.322	0.699986327	CRUSADE	lure	n/a	n/a	n/a	1
303.022	0.366724566	SENTRY	lure	n/a	n/a	n/a	1
303.389	0.733264141	TRADEMARK	lure	n/a	n/a	n/a	1
304.122	0.566650872	RULER	lure	n/a	n/a	n/a	1
304.689	0.56670744	LOLLIPOP	lure	n/a	n/a	n/a	1
305.255	0.349989597	DECORUM	lure	n/a	n/a	n/a	1
305.605	0.733284831	BAKERY	lure	n/a	n/a	n/a	1
306.339	0.483369432	AFFIX	lure	n/a	n/a	n/a	1
306.822	0.466620852	HOMICIDE	lure	n/a	n/a	n/a	1
307.289	2.016637939	MACHINE	long	n/a	n/a	n/a	1
309.305	0.63331845	FRUGALITY	lure	n/a	n/a	n/a	1
309.939	0.616658109	CONFESSOR	lure	n/a	n/a	n/a	1
310.555	0.483330989	GRANDSON	lure	n/a	n/a	n/a	1
311.039	0.333329769	RADAR	lure	n/a	n/a	n/a	1
311.372	0.366695785	KNOBBY	lure	n/a	n/a	n/a	1
311.739	0.583327865	ADMIRATION	lure	n/a	n/a	n/a	1
312.322	0.633282462	MATURITY	lure	n/a	n/a	n/a	1
312.955	0.552305057	RESIDENT	lure	n/a	n/a	n/a	1
313.507	0.447680817	SERMON	lure	n/a	n/a	n/a	1
313.955	0.499998355	GREYHOUND	lure	n/a	n/a	n/a	1
314.455	0.566655128	NEAPOLITAN	lure	n/a	n/a	n/a	1
315.022	0.349997516	TRIBALISM	lure	n/a	n/a	n/a	1
315.372	1.01665157	CRANBERRY	fruit	n/a	n/a	2	0
316.388	0.666650685	REWRITE	lure	122	2	n/a	0
317.055	0.349996218	DEBILITATE	lure	n/a	n/a	n/a	1
317.405	0.35383506	KNIGHTHOOD	lure	n/a	n/a	n/a	1
317.759	0.562819217	NUTSHELL	lure	n/a	n/a	n/a	1
318.322	0.649996697	WARREN	lure	n/a	n/a	n/a	1
318.972	0.483319418	CATERER	lure	n/a	n/a	n/a	1
319.455	0.600000295	CHIVE	lure	n/a	n/a	n/a	1
320.055	0.666708832	FRAGMENT	lure	n/a	n/a	n/a	1
320.722	0.533281221	SLAB	lure	n/a	n/a	n/a	1
321.255	0.733315775	INSPECTION	lure	n/a	n/a	n/a	1
321.988	0.49998494	EXPOSURE	lure	n/a	n/a	n/a	1
322.488	0.583328424	PLASM	lure	n/a	n/a	n/a	1
323.072	0.60004545	REDCOAT	lure	n/a	n/a	n/a	1
323.672	0.616609533	ASHES	short	n/a	n/a	n/a	1
324.288	0.316653226	GNOME	lure	n/a	n/a	n/a	1
324.605	0.600043843	HITCHHIKER	lure	n/a	n/a	n/a	1
325.205	0.3832854	CURVATURE	lure	n/a	n/a	n/a	1
325.588	0.549986707	IMMUNOLOGY	lure	n/a	n/a	n/a	1
326.138	0.333333526	SWINDLER	lure	n/a	n/a	n/a	1
326.472	0.599986012	FREEMAN	lure	n/a	n/a	n/a	1
327.072	0.599989407	BOARDER	lure	n/a	n/a	n/a	1
327.672	0.433328388	REGIMEN	lure	n/a	n/a	n/a	1
328.105	0.733321092	TRUANCY	lure	n/a	n/a	n/a	1
328.838	0.566658871	SOLILOQUY	lure	n/a	n/a	n/a	1
329.405	0.399998744	HOORAY	lure	n/a	n/a	n/a	1
329.805	0.4500396	TIER	lure	n/a	n/a	n/a	1
330.255	0.46660966	CAVEMEN	lure	n/a	n/a	n/a	1
330.722	0.766716997	PLEASANTRY	lure	n/a	n/a	n/a	1
331.488	0.733268074	CREEK	lure	n/a	n/a	n/a	1
332.222	0.61665738	CORK	short	n/a	n/a	n/a	1
332.838	0.3667088	CRUSHER	lure	n/a	n/a	n/a	1
333.205	0.466610805	DIVERGENCE	lure	n/a	n/a	n/a	1
333.672	0.699990187	BRILLIANCY	lure	n/a	n/a	n/a	1
334.372	0.549991618	NINTENDO	lure	n/a	n/a	n/a	1
334.921	0.318482097	REFORMER	lure	n/a	n/a	n/a	1
335.24	0.61484085	DISUNION	lure	n/a	n/a	n/a	1
335.855	0.616652563	RAILROADER	lure	n/a	n/a	n/a	1
336.471	0.366665475	SPOUSE	lure	n/a	n/a	n/a	1
336.838	0.633320718	EVENT	lure	n/a	n/a	n/a	1
337.471	0.349999877	STALAGMITE	lure	n/a	n/a	n/a	1
337.821	0.716703447	SPORTSMAN	lure	n/a	n/a	n/a	1
338.538	0.583278441	CLEARANCE	lure	n/a	n/a	n/a	1
339.121	0.449991423	EMIGRATION	lure	n/a	n/a	n/a	1
339.571	0.599993563	BEDFELLOW	lure	n/a	n/a	n/a	1
340.171	0.533324119	PRODUCT	lure	n/a	n/a	n/a	1
340.705	2.016639866	PUTTY	long	n/a	n/a	n/a	1
342.721	0.616659981	CUB	lure	n/a	n/a	n/a	1
343.338	0.483324107	HORSEPLAY	lure	n/a	n/a	n/a	1
343.821	0.549994905	WATERFALL	lure	n/a	n/a	n/a	1
344.371	0.349988787	STATUARY	lure	n/a	n/a	n/a	1
344.721	0.733327569	VESSEL	lure	n/a	n/a	n/a	1
345.455	0.649991499	DURATION	lure	n/a	n/a	n/a	1
346.105	0.466660376	QUICHE	lure	n/a	n/a	n/a	1
346.571	0.333329531	KIDDY	lure	n/a	n/a	n/a	1
346.905	0.533319766	SUEDE	lure	n/a	n/a	n/a	1
347.438	0.316662296	LATTER	lure	n/a	n/a	n/a	1
347.755	0.566664209	FOOTHILL	lure	n/a	n/a	n/a	1
348.321	0.816652485	GRAPH	lure	n/a	n/a	n/a	1
349.138	0.616661864	DIRT	short	n/a	n/a	n/a	1
349.755	0.399994121	VERSE	lure	n/a	n/a	n/a	1
350.155	0.716656209	LIVERWURST	lure	n/a	n/a	n/a	1
350.871	0.483326706	SCRIPT	lure	n/a	n/a	n/a	1
351.355	0.39998862	COMPARISON	lure	n/a	n/a	n/a	1
351.755	0.433333071	FLUIDITY	lure	n/a	n/a	n/a	1
352.188	0.383322141	CONTEXT	lure	n/a	n/a	n/a	1
352.571	0.433333722	SHAMMY	lure	n/a	n/a	n/a	1
353.005	0.749983096	THIRST	lure	n/a	n/a	n/a	1
353.755	0.666662198	PONCHO	lure	n/a	n/a	n/a	1
354.421	0.733362286	VALENCE	lure	n/a	n/a	n/a	1
355.155	0.416621793	ENCLAVE	lure	n/a	n/a	n/a	1
355.571	0.516661207	WHIM	lure	n/a	n/a	n/a	1
356.088	0.666650663	PHONECALL	lure	n/a	n/a	n/a	1
356.755	0.383328153	CRUDE	lure	n/a	n/a	n/a	1
357.138	0.616663284	DRILL	short	n/a	n/a	n/a	1
357.755	0.433326386	PROM	lure	n/a	n/a	n/a	1
358.188	0.333324098	COMPETITOR	lure	n/a	n/a	n/a	1
358.521	0.502334871	NIGHTFALL	lure	n/a	n/a	n/a	1
359.024	0.697651886	GUERRILLA	lure	n/a	n/a	n/a	1
359.721	0.616659843	STEPCHILD	lure	n/a	n/a	n/a	1
360.338	0.683318589	BOATHOUSE	lure	n/a	n/a	n/a	1
361.021	0.499992873	HINDSIGHT	lure	n/a	n/a	n/a	1
361.521	0.483326618	MANNEQUIN	lure	n/a	n/a	n/a	1
362.004	0.633324548	HEADMASTER	lure	n/a	n/a	n/a	1
362.638	0.349997909	REALTOR	lure	n/a	n/a	n/a	1
362.988	0.549989877	DIGRESSION	lure	n/a	n/a	n/a	1
363.538	0.316662073	FOREFINGER	lure	n/a	n/a	n/a	1
363.854	0.616658132	CATARACT	lure	n/a	n/a	n/a	1
364.471	0.666717554	BALSAM	lure	n/a	n/a	n/a	1
365.138	0.616597636	MYTH	lure	n/a	n/a	n/a	1
365.754	2.016645073	SAIL	long	n/a	n/a	n/a	1
367.771	0.683321887	UNCLE	lure	n/a	n/a	n/a	1
368.454	0.550037436	PLANELOAD	lure	n/a	n/a	n/a	1
369.004	0.483283318	THEME	lure	n/a	n/a	n/a	1
369.488	0.466659207	WARDROBE	lure	n/a	n/a	n/a	1
369.954	0.333327517	RIVERSIDE	lure	n/a	n/a	n/a	1
370.288	0.499993768	TANG	lure	n/a	n/a	n/a	1
370.788	0.600038016	BAYOU	lure	n/a	n/a	n/a	1
371.388	0.78327479	KILLJOY	lure	n/a	n/a	n/a	1
372.171	0.599993497	LIVER	lure	n/a	n/a	n/a	1
372.771	0.416658364	EXERTION	lure	n/a	n/a	n/a	1
373.188	0.500041042	KEROSENE	lure	n/a	n/a	n/a	1
373.688	2.016593889	MAST	long	n/a	n/a	n/a	1
375.704	0.483319884	CASKET	lure	n/a	n/a	n/a	1
376.188	0.516659388	CAPITAL	lure	n/a	n/a	n/a	1
376.704	0.333328596	SIXPENCE	lure	n/a	n/a	n/a	1
377.038	0.733323239	ADAPTER	lure	n/a	n/a	n/a	1
377.771	0.733328885	OCTANE	lure	n/a	n/a	n/a	1
378.504	0.366656084	WASHOUT	lure	n/a	n/a	n/a	1
378.871	0.616708402	SUBWAY	lure	n/a	n/a	n/a	1
379.488	0.649946712	LIEU	lure	n/a	n/a	n/a	1
380.138	0.600027175	OBSCURITY	lure	n/a	n/a	n/a	1
380.738	0.733281745	INDUSTRY	lure	n/a	n/a	n/a	1
381.471	0.54999788	CYCLIST	lure	n/a	n/a	n/a	1
382.021	1.016690778	GOOSEBERRY	fruit	618	2	2	1
383.038	0.366620669	FOREBEAR	lure	n/a	n/a	n/a	1
383.404	0.33333096	FROG	lure	n/a	n/a	n/a	1
383.737	0.433374915	ANNOUNCER	lure	n/a	n/a	n/a	1
384.171	0.416666838	MUFFIN	lure	n/a	n/a	n/a	1
384.588	0.633264991	SPELLER	lure	n/a	n/a	n/a	1
385.221	0.366713597	PRUDE	lure	n/a	n/a	n/a	1
385.588	0.684028502	REVERIE	lure	n/a	n/a	n/a	1
386.272	0.549241892	QUICKSAND	lure	n/a	n/a	n/a	1
386.821	0.716656001	POSTSCRIPT	lure	n/a	n/a	n/a	1
387.537	0.549989612	GUILD	lure	n/a	n/a	n/a	1
388.087	0.333327887	SURVIVAL	lure	n/a	n/a	n/a	1
388.421	0.599991894	PANACEA	lure	n/a	n/a	n/a	1
389.021	0.550040259	WOODBLOCK	lure	n/a	n/a	n/a	1
389.571	0.79994177	SCORCHER	lure	n/a	n/a	n/a	1
390.371	0.349992269	CYLINDER	lure	n/a	n/a	n/a	1
390.721	1.016657758	PLUM	fruit	606	2	2	1
391.737	0.733355882	CATACLYSM	lure	n/a	n/a	n/a	1
392.471	0.316672938	TAKER	lure	n/a	n/a	n/a	1
392.787	0.633281553	MUTTON	lure	n/a	n/a	n/a	1
393.421	0.31966251	ZOO	lure	n/a	n/a	n/a	1
393.74	0.580323781	VALLEY	lure	n/a	n/a	n/a	1
394.321	0.616658417	DECORATOR	lure	n/a	n/a	n/a	1
394.937	0.533320339	WATT	lure	n/a	n/a	n/a	1
395.471	0.549996654	ASTERISK	lure	n/a	n/a	n/a	1
396.021	0.483328445	DISSONANCE	lure	n/a	n/a	n/a	1
396.504	0.59999046	NAIVETY	lure	n/a	n/a	n/a	1
397.104	0.549990584	DISSUASION	lure	n/a	n/a	n/a	1
397.654	0.566658099	SOFTY	lure	n/a	n/a	n/a	1
398.221	0.6500373	BRICKYARD	lure	n/a	n/a	n/a	1
398.871	0.533276822	JET	lure	n/a	n/a	n/a	1
399.404	0.616658473	CURB	short	n/a	n/a	n/a	1
400.021	0.366709682	YACHTSMAN	lure	n/a	n/a	n/a	1
400.387	0.716614639	DISK	lure	n/a	n/a	n/a	1
401.104	0.599990793	SHOESTRING	lure	n/a	n/a	n/a	1
401.704	0.683323238	FARMSTEAD	lure	n/a	n/a	n/a	1
402.387	0.399991763	INHIBITION	lure	n/a	n/a	n/a	1
402.787	0.699990457	TRADESMAN	lure	n/a	n/a	n/a	1
403.487	0.616660187	MUSCLEMEN	lure	n/a	n/a	n/a	1
404.104	0.649992284	WRECKAGE	lure	n/a	n/a	n/a	1
404.754	0.433372886	SURFER	lure	n/a	n/a	n/a	1
405.187	0.549946605	VOYAGER	lure	n/a	n/a	n/a	1
405.737	0.766652326	OFFSHOOT	lure	n/a	n/a	n/a	1
406.504	0.36665914	NEWSMEN	lure	n/a	n/a	n/a	1
406.87	0.599995322	EXPRESSWAY	lure	n/a	n/a	n/a	1
407.47	0.383330112	REED	lure	n/a	n/a	n/a	1
407.854	0.616658896	RAMP	short	n/a	n/a	n/a	1
408.47	0.483320041	MAGMA	lure	n/a	n/a	n/a	1
408.954	0.333333138	BENEFICENT	lure	n/a	n/a	n/a	1
409.287	0.649992354	FEEDBACK	lure	n/a	n/a	n/a	1
409.937	0.449988646	COUSIN	lure	n/a	n/a	n/a	1
410.387	0.733324221	KEYSTONE	lure	n/a	n/a	n/a	1
411.12	0.53332853	COASTER	lure	n/a	n/a	n/a	1
411.654	0.449991346	STOWAWAY	lure	n/a	n/a	n/a	1
412.104	0.716660425	ARMFUL	lure	n/a	n/a	n/a	1
412.82	0.699984255	INEPTITUDE	lure	n/a	n/a	n/a	1
413.52	0.716662961	WRECKER	lure	n/a	n/a	n/a	1
414.237	0.683317402	HARPER	lure	n/a	n/a	n/a	1
414.92	0.616663694	GODSEND	lure	n/a	n/a	n/a	1
415.537	0.649985666	DIRECTION	lure	n/a	n/a	n/a	1
416.187	2.016644865	BRUSH	long	n/a	n/a	n/a	1
418.204	0.616654846	AMBROSIA	lure	n/a	n/a	n/a	1
418.82	0.400033919	POTTERY	lure	n/a	n/a	n/a	1
419.22	0.399957574	SKYSCRAPER	lure	n/a	n/a	n/a	1
419.62	0.533385447	OBSERVANCE	lure	n/a	n/a	n/a	1
420.154	0.716591948	SULFUR	lure	n/a	n/a	n/a	1
420.87	0.350699276	VOCALISM	lure	n/a	n/a	n/a	1
421.221	0.665956819	STYLIST	lure	n/a	n/a	n/a	1
421.887	0.666653179	ARTIFACT	lure	n/a	n/a	n/a	1
422.554	0.716661752	ORDINATE	lure	n/a	n/a	n/a	1
423.27	0.566708076	GALAXY	lure	n/a	n/a	n/a	1
423.837	0.352356099	AIRBASE	lure	n/a	n/a	n/a	1
424.189	0.614248507	CELLIST	lure	n/a	n/a	n/a	1
424.804	1.016652744	LEMON	fruit	795	2	2	1
425.82	0.383326317	MORROW	lure	n/a	n/a	n/a	1
426.204	0.699988085	MERINGUE	lure	n/a	n/a	n/a	1
426.904	0.716654035	WIGWAM	lure	n/a	n/a	n/a	1
427.62	0.716821509	THEW	lure	n/a	n/a	n/a	1
428.337	0.383168114	GENETICIST	lure	n/a	n/a	n/a	1
428.72	0.666655774	HIDEOUT	lure	n/a	n/a	n/a	1
429.387	0.333331442	OZONE	lure	n/a	n/a	n/a	1
429.72	0.349989265	OPIUM	lure	n/a	n/a	n/a	1
430.07	0.499997851	BUCKWHEAT	lure	n/a	n/a	n/a	1
430.57	0.583324621	ZEBRA	lure	n/a	n/a	n/a	1
431.153	0.733318875	DIARY	lure	n/a	n/a	n/a	1
431.887	0.333372682	SHOWBOAT	lure	n/a	n/a	n/a	1
432.22	0.349956052	OUTSET	lure	n/a	n/a	n/a	1
432.57	0.616659204	TIRE	short	n/a	n/a	n/a	1
433.187	0.633323287	PLANET	lure	n/a	n/a	n/a	1
433.82	0.433327185	SWIMMER	lure	n/a	n/a	n/a	1
434.253	0.633326437	DAGGER	lure	n/a	n/a	n/a	1
434.887	0.566655482	NUT	lure	n/a	n/a	n/a	1
435.453	0.399996875	MEAD	lure	n/a	n/a	n/a	1
435.853	0.416657548	RECESSION	lure	n/a	n/a	n/a	1
436.27	0.400050797	SAUCEPAN	lure	n/a	n/a	n/a	1
436.67	0.416601805	SKIRMISH	lure	n/a	n/a	n/a	1
437.087	0.633333559	CONFIDANTE	lure	n/a	n/a	n/a	1
437.72	0.749981883	THRONE	lure	n/a	n/a	n/a	1
438.47	0.350035322	YOGA	lure	n/a	n/a	n/a	1
438.82	0.649952027	COACHMAN	lure	n/a	n/a	n/a	1
439.47	0.466706598	CARRIER	lure	n/a	n/a	n/a	1
439.937	0.549945693	BANQUET	lure	n/a	n/a	n/a	1
440.487	0.600041033	APPARITION	lure	n/a	n/a	n/a	1
441.087	2.016591187	RAVINE	long	n/a	n/a	n/a	1
443.103	0.616718939	OCCUPATION	lure	n/a	n/a	n/a	1
443.72	0.416597264	KEYHOLE	lure	n/a	n/a	n/a	1
444.137	0.499998028	IMPOSITION	lure	n/a	n/a	n/a	1
444.637	0.499986548	STORK	lure	n/a	n/a	n/a	1
445.137	0.483332144	VINEYARD	lure	n/a	n/a	n/a	1
445.62	0.649985154	MISUSE	lure	n/a	n/a	n/a	1
446.27	0.466666077	PENTAMETER	lure	n/a	n/a	n/a	1
446.737	0.499993021	DEPUTY	lure	n/a	n/a	n/a	1
447.237	0.383328976	PARANOIA	lure	n/a	n/a	n/a	1
447.62	0.533321579	LANE	lure	n/a	n/a	n/a	1
448.153	0.549995136	INMATE	lure	n/a	n/a	n/a	1
448.703	0.533323791	MORTICIAN	lure	n/a	n/a	n/a	1
449.237	2.016638424	MONSOON	long	n/a	n/a	n/a	1
451.253	0.583322515	SPECTACLE	lure	n/a	n/a	n/a	1
451.837	0.666662272	FRINGE	lure	n/a	n/a	n/a	1
452.503	0.766656614	ORATOR	lure	n/a	n/a	n/a	1
453.27	0.349989278	ICEPICK	lure	n/a	n/a	n/a	1
453.62	0.683467115	RAINSTORM	lure	n/a	n/a	n/a	1
454.303	0.366518478	BRUTALITY	lure	n/a	n/a	n/a	1
454.67	0.616663094	SWITCHMAN	lure	n/a	n/a	n/a	1
455.286	0.366716192	NOTION	lure	n/a	n/a	n/a	1
455.653	0.633265211	SPIRIT	lure	n/a	n/a	n/a	1
456.286	0.433326944	GULLY	lure	n/a	n/a	n/a	1
456.72	0.470842212	DITTY	lure	n/a	n/a	n/a	1
457.191	0.545816466	TENT	lure	n/a	n/a	n/a	1
457.736	0.566652379	LOFT	lure	n/a	n/a	n/a	1
458.303	0.633330681	AFTERNOON	lure	n/a	n/a	n/a	1
458.936	0.566656752	GOON	lure	n/a	n/a	n/a	1
459.503	0.766656955	BISCUIT	lure	n/a	n/a	n/a	1
460.27	0.316661331	FRENZY	lure	n/a	n/a	n/a	1
460.586	0.449995366	CALLER	lure	n/a	n/a	n/a	1
461.036	0.549993025	GENTILITY	lure	n/a	n/a	n/a	1
461.586	0.549989363	TELEGRAPHY	lure	n/a	n/a	n/a	1
462.136	0.399995149	HEIRLOOM	lure	n/a	n/a	n/a	1
462.536	0.316663154	BOYHOOD	lure	n/a	n/a	n/a	1
462.853	0.333328005	HUTCH	lure	n/a	n/a	n/a	1
463.186	0.716654259	LYNX	lure	n/a	n/a	n/a	1
463.903	0.516660516	RAZZLE	lure	n/a	n/a	n/a	1
464.42	n/a	CORNFLOUR	lure	n/a	n/a	n/a	1