onset	duration	stim	cond	RT	resp	cresp	acc
4.04	0.731499717	POSTCARD	lure	n/a	n/a	n/a	1
4.771	0.483232243	CHAUVINIST	lure	n/a	n/a	n/a	1
5.254	0.649989466	MEMORIAL	lure	n/a	n/a	n/a	1
5.904	0.333330466	ANTHILL	lure	n/a	n/a	n/a	1
6.238	0.366753441	ARTISTRY	lure	n/a	n/a	n/a	1
6.605	0.716619495	MALCONTENT	lure	n/a	n/a	n/a	1
7.321	0.566650779	NUTRITION	lure	n/a	n/a	n/a	1
7.888	2.016592511	BRUSH	long	n/a	n/a	n/a	1
9.904	0.366660142	HIP	lure	n/a	n/a	n/a	1
10.271	0.78332208	GULLET	lure	n/a	n/a	n/a	1
11.054	0.316662256	PROMOTER	lure	n/a	n/a	n/a	1
11.371	0.566657656	CONGRUITY	lure	n/a	n/a	n/a	1
11.938	0.433327624	HICKORY	lure	n/a	n/a	n/a	1
12.371	0.383329824	GRENADINE	lure	n/a	n/a	n/a	1
12.754	0.502150981	FORERUNNER	lure	n/a	n/a	n/a	1
13.257	0.635791252	PROSPERITY	lure	n/a	n/a	n/a	1
13.892	0.678763172	BURR	lure	n/a	n/a	n/a	1
14.571	0.68325505	FOLDER	lure	n/a	n/a	n/a	1
15.254	0.583327956	POSSESSOR	lure	n/a	n/a	n/a	1
15.838	0.466725188	PARTRIDGE	lure	n/a	n/a	n/a	1
16.304	1.016633212	NECTARINE	fruit	678	2	2	1
17.321	0.59994232	SALAD	lure	n/a	n/a	n/a	1
17.921	0.516660898	PRESSER	lure	n/a	n/a	n/a	1
18.438	0.433326213	MANICURE	lure	n/a	n/a	n/a	1
18.871	0.599996478	ABSENCE	lure	n/a	n/a	n/a	1
19.471	0.749988319	OPPRESSION	lure	n/a	n/a	n/a	1
20.221	0.416660823	DRAWBRIDGE	lure	n/a	n/a	n/a	1
20.638	0.349995593	WHIZ	lure	n/a	n/a	n/a	1
20.988	0.516659776	DISCIPLE	lure	n/a	n/a	n/a	1
21.504	0.383325803	MEDICATION	lure	n/a	n/a	n/a	1
21.888	0.433329045	Un/aEST	lure	n/a	n/a	n/a	1
22.321	0.449992968	WEATHERMAN	lure	n/a	n/a	n/a	1
22.771	0.38332868	ANYBODY	lure	n/a	n/a	n/a	1
23.154	0.499991851	QUARRYMEN	lure	n/a	n/a	n/a	1
23.654	0.53337682	NOVOCAINE	lure	n/a	n/a	n/a	1
24.188	0.666605629	DOMICILE	lure	n/a	n/a	n/a	1
24.854	2.016644235	CLUB	long	n/a	n/a	n/a	1
26.871	0.516656124	BIRCH	lure	n/a	n/a	n/a	1
27.388	0.483324162	DETONATOR	lure	n/a	n/a	n/a	1
27.871	0.433375606	RULEBOOK	lure	n/a	n/a	n/a	1
28.304	0.650004517	RUBELLA	lure	n/a	n/a	n/a	1
28.954	0.699928746	SHIPPER	lure	n/a	n/a	n/a	1
29.654	0.483326511	GYRO	lure	n/a	n/a	n/a	1
30.137	0.699993332	LOCKJAW	lure	n/a	n/a	n/a	1
30.837	0.466656769	LUMBERJACK	lure	n/a	n/a	n/a	1
31.304	0.700034269	SETTER	lure	n/a	n/a	n/a	1
32.004	0.599948363	OVERSPILL	lure	n/a	n/a	n/a	1
32.604	0.766657113	REVERSAL	lure	n/a	n/a	n/a	1
33.371	0.616658194	ASHES	short	n/a	n/a	n/a	1
33.987	0.733321555	LEGISLATOR	lure	n/a	n/a	n/a	1
34.721	0.366661408	BEDSIDE	lure	n/a	n/a	n/a	1
35.087	0.733323221	CRAFTER	lure	n/a	n/a	n/a	1
35.821	0.516661149	FUTILITY	lure	n/a	n/a	n/a	1
36.337	0.633322409	CLIMATE	lure	n/a	n/a	n/a	1
36.971	0.533322186	MULLET	lure	n/a	n/a	n/a	1
37.504	0.434376209	REBELLION	lure	n/a	n/a	n/a	1
37.938	0.615659244	FUSION	lure	n/a	n/a	n/a	1
38.554	0.433280283	COVERALL	lure	n/a	n/a	n/a	1
38.987	0.76665689	EXPEDIENCY	lure	n/a	n/a	n/a	1
39.754	0.699990165	PAYOFF	lure	n/a	n/a	n/a	1
40.454	0.33342108	THROAT	lure	n/a	n/a	n/a	1
40.787	0.499900816	STANDPOINT	lure	n/a	n/a	n/a	1
41.287	0.616656936	CURB	short	n/a	n/a	n/a	1
41.904	0.583326295	PIETY	lure	n/a	n/a	n/a	1
42.487	0.316662905	PARENTHOOD	lure	n/a	n/a	n/a	1
42.804	0.583324653	MINESTRONE	lure	n/a	n/a	n/a	1
43.387	0.716651122	CURIOSITY	lure	n/a	n/a	n/a	1
44.104	0.383333395	DOORSTOP	lure	n/a	n/a	n/a	1
44.487	0.666656331	INQUIRY	lure	n/a	n/a	n/a	1
45.154	0.649987098	STERLING	lure	n/a	n/a	n/a	1
45.804	0.333332689	COGNAC	lure	n/a	n/a	n/a	1
46.137	0.466660603	GIRLFRIEND	lure	n/a	n/a	n/a	1
46.604	0.366661937	WANDERER	lure	n/a	n/a	n/a	1
46.971	0.666658624	BRINE	lure	n/a	n/a	n/a	1
47.637	0.366743568	BACKTALK	lure	n/a	n/a	n/a	1
48.004	0.316627878	BROTH	lure	n/a	n/a	n/a	1
48.321	0.566610278	LEGITIMACY	lure	n/a	n/a	n/a	1
48.887	0.399993091	ADJECTIVE	lure	n/a	n/a	n/a	1
49.287	2.016640932	SAIL	long	n/a	n/a	n/a	1
51.304	0.65004594	PASTIME	lure	n/a	n/a	n/a	1
51.954	0.466603626	PETROL	lure	n/a	n/a	n/a	1
52.42	0.399988829	SHIRT	lure	n/a	n/a	n/a	1
52.82	0.416717596	COWHIDE	lure	n/a	n/a	n/a	1
53.237	0.716668849	VANDALISM	lure	n/a	n/a	n/a	1
53.954	0.649928371	SYMPHONY	lure	n/a	n/a	n/a	1
54.604	0.666657416	LEFTHANDER	lure	n/a	n/a	n/a	1
55.27	0.566719934	CHROMOSOME	lure	n/a	n/a	n/a	1
55.837	0.449979552	LIBERATOR	lure	n/a	n/a	n/a	1
56.287	0.699941107	LETTERMEN	lure	n/a	n/a	n/a	1
56.987	0.699991445	HAIRNET	lure	n/a	n/a	n/a	1
57.687	2.016638024	PUTTY	long	n/a	n/a	n/a	1
59.704	0.550048382	TEAMMATE	lure	n/a	n/a	n/a	1
60.254	0.466604012	AIRFRAME	lure	n/a	n/a	n/a	1
60.72	0.666658112	CHIC	lure	n/a	n/a	n/a	1
61.387	0.666655837	JAWBONE	lure	n/a	n/a	n/a	1
62.054	0.566715063	ARMHOLE	lure	n/a	n/a	n/a	1
62.62	0.433272624	ALCHEMIST	lure	n/a	n/a	n/a	1
63.054	0.566717473	MAILBOX	lure	n/a	n/a	n/a	1
63.62	0.449933642	WHALE	lure	n/a	n/a	n/a	1
64.07	0.566745897	CHEAPSKATE	lure	n/a	n/a	n/a	1
64.637	0.516635941	INSOLENCE	lure	n/a	n/a	n/a	1
65.154	0.449930836	CREATURE	lure	n/a	n/a	n/a	1
65.604	0.499991052	REACTIVITY	lure	n/a	n/a	n/a	1
66.104	0.616660635	DEPOT	short	n/a	n/a	n/a	1
66.72	0.650048324	SCEPTICISM	lure	n/a	n/a	n/a	1
67.37	0.649932088	UPTAKE	lure	n/a	n/a	n/a	1
68.02	0.533327444	POPPER	lure	n/a	n/a	n/a	1
68.554	0.583381558	FAMINE	lure	n/a	n/a	n/a	1
69.137	0.716597951	GODFATHER	lure	n/a	n/a	n/a	1
69.854	0.78332393	CARRYOUT	lure	n/a	n/a	n/a	1
70.637	0.31666174	EVASION	lure	n/a	n/a	n/a	1
70.954	0.466660571	ABERRATION	lure	n/a	n/a	n/a	1
71.42	0.383324411	REPAIRMEN	lure	n/a	n/a	n/a	1
71.804	0.466660941	MONOPOLY	lure	n/a	n/a	n/a	1
72.27	0.635473108	CAPRICE	lure	n/a	n/a	n/a	1
72.906	0.664513138	FATALISM	lure	n/a	n/a	n/a	1
73.57	0.516656925	GERANIUM	lure	n/a	n/a	n/a	1
74.087	0.616659685	LIGHT	short	n/a	n/a	n/a	1
74.704	0.56665779	TRADESMEN	lure	n/a	n/a	n/a	1
75.27	0.433325777	HAIRLINE	lure	n/a	n/a	n/a	1
75.703	0.633327011	PIXIE	lure	n/a	n/a	n/a	1
76.337	0.483327049	SULTAN	lure	n/a	n/a	n/a	1
76.82	0.399993497	DOGFIGHT	lure	n/a	n/a	n/a	1
77.22	0.616657207	CRESCENDO	lure	n/a	n/a	n/a	1
77.837	0.499989513	BUN	lure	n/a	n/a	n/a	1
78.337	0.333332082	CARNIVAL	lure	n/a	n/a	n/a	1
78.67	0.766656937	INSOLE	lure	n/a	n/a	n/a	1
79.437	0.383327696	EXTRUSION	lure	n/a	n/a	n/a	1
79.82	0.634614527	OCEANSIDE	lure	n/a	n/a	n/a	1
80.455	0.665367499	CARTON	lure	n/a	n/a	n/a	1
81.12	0.533326689	AQUARIUM	lure	n/a	n/a	n/a	1
81.653	0.48332707	TRANSPLANT	lure	n/a	n/a	n/a	1
82.137	1.016647957	PINEAPPLE	fruit	654	2	2	1
83.153	0.56666085	SLOAN	lure	n/a	n/a	n/a	1
83.72	0.649990137	EXPERTISE	lure	n/a	n/a	n/a	1
84.37	0.649995096	DISSERVICE	lure	n/a	n/a	n/a	1
85.02	0.54998908	GUNSLINGER	lure	n/a	n/a	n/a	1
85.57	0.633320424	SLEEPYHEAD	lure	n/a	n/a	n/a	1
86.203	0.549996346	PASTEBOARD	lure	n/a	n/a	n/a	1
86.753	0.516659543	PRESSMAN	lure	n/a	n/a	n/a	1
87.27	0.483407157	SINNER	lure	n/a	n/a	n/a	1
87.753	0.516579633	PRIVILEGE	lure	n/a	n/a	n/a	1
88.27	0.550051621	PROPRIETOR	lure	n/a	n/a	n/a	1
88.82	0.316602769	TRADITION	lure	n/a	n/a	n/a	1
89.137	0.433327001	BIPLANE	lure	n/a	n/a	n/a	1
89.57	0.350045668	CAMOMILE	lure	n/a	n/a	n/a	1
89.92	0.752845969	TYPOGRAPHY	lure	n/a	n/a	n/a	1
90.673	2.013727389	MONSOON	long	n/a	n/a	n/a	1
92.687	0.733325003	En/aOLLMENT	lure	n/a	n/a	n/a	1
93.42	0.499999213	RIFF	lure	n/a	n/a	n/a	1
93.92	0.666655088	ROTATION	lure	n/a	n/a	n/a	1
94.587	0.716710886	FATHEAD	lure	n/a	n/a	n/a	1
95.303	0.566603295	NEUTRALISM	lure	n/a	n/a	n/a	1
95.87	0.6666591	IRONY	lure	n/a	n/a	n/a	1
96.537	0.649988891	HAMBURGER	lure	n/a	n/a	n/a	1
97.187	0.649993827	TALKER	lure	n/a	n/a	n/a	1
97.837	0.499990635	RIGGER	lure	n/a	n/a	n/a	1
98.337	0.650046116	CUCUMBER	lure	n/a	n/a	n/a	1
98.987	1.019154576	NECTARINE	fruit	668	2	2	1
100.006	0.630764665	ORIGIN	lure	n/a	n/a	n/a	1
100.636	0.35336396	CORNEA	lure	n/a	n/a	n/a	1
100.99	0.396629134	VULGARITY	lure	n/a	n/a	n/a	1
101.386	0.566656663	DOMINION	lure	n/a	n/a	n/a	1
101.953	0.43332705	BABE	lure	n/a	n/a	n/a	1
102.386	0.733324857	COHERENCY	lure	n/a	n/a	n/a	1
103.12	0.349988866	PURGATORY	lure	n/a	n/a	n/a	1
103.47	0.583396753	LOON	lure	n/a	n/a	n/a	1
104.053	0.649927938	PAIL	lure	n/a	n/a	n/a	1
104.703	0.666710013	ANCESTRY	lure	n/a	n/a	n/a	1
105.37	0.499936407	UTILITY	lure	n/a	n/a	n/a	1
105.87	0.600047207	SYMBOL	lure	n/a	n/a	n/a	1
106.47	0.59993228	BALLOONIST	lure	n/a	n/a	n/a	1
107.07	0.349993999	SOAPBOX	lure	n/a	n/a	n/a	1
107.42	2.01664729	MAST	long	n/a	n/a	n/a	1
109.436	0.566704782	MONOTONE	lure	n/a	n/a	n/a	1
110.003	0.69999721	EFFORT	lure	n/a	n/a	n/a	1
110.703	0.716647222	MACKEREL	lure	n/a	n/a	n/a	1
111.42	0.516668517	ESTIMATE	lure	n/a	n/a	n/a	1
111.936	0.433336822	LUCIDITY	lure	n/a	n/a	n/a	1
112.37	0.666589712	HELLCAT	lure	n/a	n/a	n/a	1
113.036	0.701514175	COCKATOO	lure	n/a	n/a	n/a	1
113.738	0.331865696	CORNMEAL	lure	n/a	n/a	n/a	1
114.07	0.383266525	SPOONFUL	lure	n/a	n/a	n/a	1
114.453	0.366719067	CHANCELLOR	lure	n/a	n/a	n/a	1
114.82	0.466604777	PISTON	lure	n/a	n/a	n/a	1
115.286	0.56665932	STEPLADDER	lure	n/a	n/a	n/a	1
115.853	0.616660167	FOIL	short	n/a	n/a	n/a	1
116.47	0.750047289	JIGSAW	lure	n/a	n/a	n/a	1
117.22	0.349930443	PURSUIT	lure	n/a	n/a	n/a	1
117.57	0.766659584	CEREBRUM	lure	n/a	n/a	n/a	1
118.336	0.716719227	CONVEYANCE	lure	n/a	n/a	n/a	1
119.053	0.749929374	DUCKWEED	lure	n/a	n/a	n/a	1
119.803	0.74998695	THEATRE	lure	n/a	n/a	n/a	1
120.553	0.416662292	ATTRACTION	lure	n/a	n/a	n/a	1
120.97	0.54999004	FOREFRONT	lure	n/a	n/a	n/a	1
121.52	0.716656522	DAY	lure	n/a	n/a	n/a	1
122.236	0.466657451	ALGAE	lure	n/a	n/a	n/a	1
122.703	0.333332366	BIRD	lure	n/a	n/a	n/a	1
123.036	0.499992507	PROVIDENCE	lure	n/a	n/a	n/a	1
123.536	0.549993309	LARCENY	lure	n/a	n/a	n/a	1
124.086	1.020385373	BERRY	fruit	648	2	2	1
125.107	0.729590459	CROCKERY	lure	n/a	n/a	n/a	1
125.836	0.633323447	CALCULATOR	lure	n/a	n/a	n/a	1
126.469	0.683324321	WORKOUT	lure	n/a	n/a	n/a	1
127.153	0.699987768	REPERTORY	lure	n/a	n/a	n/a	1
127.853	0.483329483	DUNCE	lure	n/a	n/a	n/a	1
128.336	0.333328396	HANGOVER	lure	n/a	n/a	n/a	1
128.669	0.499993991	SENSOR	lure	n/a	n/a	n/a	1
129.169	0.533323442	AMPLITUDE	lure	n/a	n/a	n/a	1
129.703	0.766656805	DUGOUT	lure	n/a	n/a	n/a	1
130.469	0.666656329	INTUITION	lure	n/a	n/a	n/a	1
131.136	0.399997684	AIRWAY	lure	n/a	n/a	n/a	1
131.536	0.68332221	FORESTER	lure	n/a	n/a	n/a	1
132.219	0.683324769	CLAUSE	lure	n/a	n/a	n/a	1
132.903	1.016645749	GRAPE	fruit	696	2	2	1
133.919	0.649999259	NATURE	lure	n/a	n/a	n/a	1
134.569	0.650034288	SUITCASE	lure	n/a	n/a	n/a	1
135.219	0.433281421	OUTPOST	lure	n/a	n/a	n/a	1
135.653	0.733382425	VILLAIN	lure	n/a	n/a	n/a	1
136.386	0.433267446	SPECULATOR	lure	n/a	n/a	n/a	1
136.819	0.72035896	OUTSIDER	lure	n/a	n/a	n/a	1
137.54	0.412960902	DIPLOMACY	lure	n/a	n/a	n/a	1
137.953	0.350049502	INNOVATOR	lure	n/a	n/a	n/a	1
138.303	0.499980461	SHORTBREAD	lure	n/a	n/a	n/a	1
138.803	0.583338882	MISERY	lure	n/a	n/a	n/a	1
139.386	0.466603816	CAMPGROUND	lure	n/a	n/a	n/a	1
139.853	0.433328301	FUNERAL	lure	n/a	n/a	n/a	1
140.286	0.350049306	WHITECAP	lure	n/a	n/a	n/a	1
140.636	0.483594325	SILO	lure	n/a	n/a	n/a	1
141.12	0.649711476	DIRT	short	n/a	n/a	n/a	1
141.769	0.750001993	MAZE	lure	n/a	n/a	n/a	1
142.519	0.333274188	DOWNPOUR	lure	n/a	n/a	n/a	1
142.853	0.3334069	HYPOCRISY	lure	n/a	n/a	n/a	1
143.186	0.683244278	HORSESHOE	lure	n/a	n/a	n/a	1
143.869	0.654700712	DANDELION	lure	n/a	n/a	n/a	1
144.524	0.545280659	PINGPONG	lure	n/a	n/a	n/a	1
145.069	0.649990725	INVESTOR	lure	n/a	n/a	n/a	1
145.719	0.666658897	CONTINENT	lure	n/a	n/a	n/a	1
146.386	0.566657052	PEN	lure	n/a	n/a	n/a	1
146.952	0.399993289	MIDWEEK	lure	n/a	n/a	n/a	1
147.352	0.536752405	NARCISSIST	lure	n/a	n/a	n/a	1
147.889	0.663234839	PERIOD	lure	n/a	n/a	n/a	1
148.552	0.416708111	SNAPDRAGON	lure	n/a	n/a	n/a	1
148.969	0.616609397	DRILL	short	n/a	n/a	n/a	1
149.586	0.483326984	MILKMAN	lure	n/a	n/a	n/a	1
150.069	0.566704696	LAWN	lure	n/a	n/a	n/a	1
150.636	0.749943898	PHENOMENON	lure	n/a	n/a	n/a	1
151.386	0.400039924	KAISER	lure	n/a	n/a	n/a	1
151.786	0.33327905	MASCOT	lure	n/a	n/a	n/a	1
152.119	0.566705455	MIDSHIP	lure	n/a	n/a	n/a	1
152.686	0.699941334	NEWSMAN	lure	n/a	n/a	n/a	1
153.386	0.566715497	BISHOP	lure	n/a	n/a	n/a	1
153.952	0.649996896	ADORNMENT	lure	n/a	n/a	n/a	1
154.602	0.366605147	TEATIME	lure	n/a	n/a	n/a	1
154.969	0.3500473	CHITCHAT	lure	n/a	n/a	n/a	1
155.319	0.483326761	RELIGION	lure	n/a	n/a	n/a	1
155.802	0.616659367	FOLKLORE	lure	n/a	n/a	n/a	1
156.419	0.66660297	DISRUPTION	lure	n/a	n/a	n/a	1
157.086	0.503589192	WINDMILL	lure	n/a	n/a	n/a	1
157.589	2.04637383	CONE	long	n/a	n/a	n/a	1
159.636	0.537012647	WINTERTIME	lure	n/a	n/a	n/a	1
160.173	0.729637799	DIVISION	lure	n/a	n/a	n/a	1
160.902	0.416657549	SPECK	lure	n/a	n/a	n/a	1
161.319	0.749990474	PENICILLIN	lure	n/a	n/a	n/a	1
162.069	0.666658013	DUFFEL	lure	n/a	n/a	n/a	1
162.736	0.433327103	PARTICLE	lure	n/a	n/a	n/a	1
163.169	0.616662675	DEPOSITOR	lure	n/a	n/a	n/a	1
163.786	0.683319122	SIGNPOST	lure	n/a	n/a	n/a	1
164.469	0.666658832	OUTFIT	lure	n/a	n/a	n/a	1
165.136	0.466658118	VENTILATOR	lure	n/a	n/a	n/a	1
165.602	0.716657422	FELICITY	lure	n/a	n/a	n/a	1
166.319	2.016637812	MACHINE	long	n/a	n/a	n/a	1
168.336	0.366663771	RAGTIME	lure	n/a	n/a	n/a	1
168.702	0.749988667	SHOELACE	lure	n/a	n/a	n/a	1
169.452	0.399993971	ARBOR	lure	n/a	n/a	n/a	1
169.852	0.583324353	BARRAGE	lure	n/a	n/a	n/a	1
170.435	0.41665771	VOCATION	lure	n/a	n/a	n/a	1
170.852	0.699996051	PARABLE	lure	n/a	n/a	n/a	1
171.552	0.583324854	DESCENT	lure	n/a	n/a	n/a	1
172.135	0.766653329	STUD	lure	n/a	n/a	n/a	1
172.902	0.483327104	GREENBACK	lure	n/a	n/a	n/a	1
173.385	0.583325383	PAD	lure	n/a	n/a	n/a	1
173.969	0.383329931	EXPANSE	lure	n/a	n/a	n/a	1
174.352	2.016639812	ARROW	long	n/a	n/a	n/a	1
176.369	0.699989954	LECH	lure	n/a	n/a	n/a	1
177.069	0.533322564	HARMONY	lure	n/a	n/a	n/a	1
177.602	0.549989636	GUNPOINT	lure	n/a	n/a	n/a	1
178.152	0.716661065	AUDIENCE	lure	n/a	n/a	n/a	1
178.869	0.699991405	CORRELATE	lure	n/a	n/a	n/a	1
179.569	0.416657482	ROBIN	lure	n/a	n/a	n/a	1
179.985	0.583325734	SMOKESTACK	lure	n/a	n/a	n/a	1
180.569	0.349994719	INDENTURE	lure	n/a	n/a	n/a	1
180.919	0.34999538	SOUTHERNER	lure	n/a	n/a	n/a	1
181.269	0.566660516	UNIVERSE	lure	n/a	n/a	n/a	1
181.835	0.33332775	INSOMNIA	lure	n/a	n/a	n/a	1
182.169	0.466660601	CONVECTION	lure	n/a	n/a	n/a	1
182.635	0.616660585	CORK	short	n/a	n/a	n/a	1
183.252	0.599988094	TIGHTROPE	lure	n/a	n/a	n/a	1
183.852	0.583325861	WALLPAPER	lure	n/a	n/a	n/a	1
184.435	0.416655234	TREASURY	lure	n/a	n/a	n/a	1
184.852	0.449997641	LEGION	lure	n/a	n/a	n/a	1
185.302	0.349995629	SEVERANCE	lure	n/a	n/a	n/a	1
185.652	0.533326081	VERSION	lure	n/a	n/a	n/a	1
186.185	0.316662328	DIVULGENCE	lure	n/a	n/a	n/a	1
186.502	0.716656739	HISTORY	lure	n/a	n/a	n/a	1
187.219	0.699988643	GEEZER	lure	n/a	n/a	n/a	1
187.919	0.399996668	SHAW	lure	n/a	n/a	n/a	1
188.319	0.599994562	DENOTATION	lure	n/a	n/a	n/a	1
188.919	0.535775137	SAKE	lure	n/a	n/a	n/a	1
189.454	0.480872678	PROTON	lure	n/a	n/a	n/a	1
189.935	0.583325227	MOOSE	lure	n/a	n/a	n/a	1
190.519	0.533328309	DISTORTION	lure	n/a	n/a	n/a	1
191.052	2.016638886	RAVINE	long	n/a	n/a	n/a	1
193.069	0.483319893	BRAVADO	lure	n/a	n/a	n/a	1
193.552	0.433330349	WHIMSEY	lure	n/a	n/a	n/a	1
193.985	0.549994158	FUTURISM	lure	n/a	n/a	n/a	1
194.535	0.599991534	ICEBREAKER	lure	n/a	n/a	n/a	1
195.135	0.583324207	ANALYZER	lure	n/a	n/a	n/a	1
195.718	0.66711842	POTPOURRI	lure	n/a	n/a	n/a	1
196.386	0.382866586	TROUPE	lure	n/a	n/a	n/a	1
196.768	0.699990594	SUPPLEMENT	lure	n/a	n/a	n/a	1
197.468	0.649986987	KITE	lure	n/a	n/a	n/a	1
198.118	0.499997307	SCREE	lure	n/a	n/a	n/a	1
198.618	0.349996454	RAYON	lure	n/a	n/a	n/a	1
198.968	0.616657459	TIRE	short	n/a	n/a	n/a	1
199.585	0.666656003	POSTCODE	lure	n/a	n/a	n/a	1
200.252	0.34999218	SENSUALITY	lure	n/a	n/a	n/a	1
200.602	0.716660282	UPSTART	lure	n/a	n/a	n/a	1
201.318	0.716655445	VELVETEEN	lure	n/a	n/a	n/a	1
202.035	0.666657223	BONANZA	lure	n/a	n/a	n/a	1
202.702	0.433329286	WIDOWHOOD	lure	n/a	n/a	n/a	1
203.135	0.366659534	COMMUTER	lure	n/a	n/a	n/a	1
203.502	0.516664145	STRIPE	lure	n/a	n/a	n/a	1
204.018	0.516657517	EARTHLING	lure	n/a	n/a	n/a	1
204.535	0.666651232	JUDO	lure	n/a	n/a	n/a	1
205.202	0.316666884	JOY	lure	n/a	n/a	n/a	1
205.518	0.499990918	SCALP	lure	n/a	n/a	n/a	1
206.018	0.366665869	BAZOOKA	lure	n/a	n/a	n/a	1
206.385	0.383323896	COMMITMENT	lure	n/a	n/a	n/a	1
206.768	0.666658629	MOTORBIKE	lure	n/a	n/a	n/a	1
207.435	0.616661959	RAMP	short	n/a	n/a	n/a	1
208.052	0.466716263	HOOLIGAN	lure	n/a	n/a	n/a	1
208.518	0.366602154	SLEIGH	lure	n/a	n/a	n/a	1
208.885	0.333323943	MOLAR	lure	n/a	n/a	n/a	1
209.218	0.566665453	TOOTH	lure	n/a	n/a	n/a	1
209.785	0.499990808	REFINERY	lure	n/a	n/a	n/a	1
210.285	0.699991806	WILLPOWER	lure	n/a	n/a	n/a	1
210.985	0.566716065	SEAWALL	lure	n/a	n/a	n/a	1
211.552	0.433336414	SCARF	lure	n/a	n/a	n/a	1
211.985	0.583254959	DOC	lure	n/a	n/a	n/a	1
212.568	0.349994244	KNOCKOUT	lure	n/a	n/a	n/a	1
212.918	0.366660602	EXPECTANCY	lure	n/a	n/a	n/a	1
213.285	0.366663837	BLOWFISH	lure	n/a	n/a	n/a	1
213.652	0.433323561	GLASSHOUSE	lure	n/a	n/a	n/a	1
214.085	0.649996299	CABARET	lure	n/a	n/a	n/a	1
214.735	0.666656585	IMPORTER	lure	n/a	n/a	n/a	1
215.402	0.533326004	WORKER	lure	n/a	n/a	n/a	1
215.935	1.01665425	ORANGE	fruit	592	2	2	1
216.952	0.350066246	ANTECEDENT	lure	n/a	n/a	n/a	1
217.302	0.749916186	VESTIBULE	lure	n/a	n/a	n/a	1
218.051	0.616660607	GREENERY	lure	n/a	n/a	n/a	1
218.668	0.533326444	DARKROOM	lure	n/a	n/a	n/a	1
219.201	0.616658006	CROSSBEAM	lure	n/a	n/a	n/a	1
219.818	0.666654592	HEALTH	lure	n/a	n/a	n/a	1
220.485	0.316719376	AEROPLANE	lure	n/a	n/a	n/a	1
220.802	0.649993913	BONBON	lure	n/a	n/a	n/a	1
221.452	0.499935259	ADVISOR	lure	n/a	n/a	n/a	1
221.951	0.500050084	CHIFFON	lure	n/a	n/a	n/a	1
222.451	0.416598324	SONOGRAM	lure	n/a	n/a	n/a	1
222.868	0.500052059	CAUSEWAY	lure	n/a	n/a	n/a	1
223.368	0.433328732	JAGUAR	lure	n/a	n/a	n/a	1
223.801	0.416604642	SANDPIT	lure	n/a	n/a	n/a	1
224.218	0.533325028	HICK	lure	n/a	n/a	n/a	1
224.751	0.700032347	SEQUENCE	lure	n/a	n/a	n/a	1
225.451	0.633283425	RETRIEVER	lure	n/a	n/a	n/a	1
226.085	0.716658189	PISTOL	lure	n/a	n/a	n/a	1
226.801	n/a	PILLOWCASE	lure	n/a	n/a	n/a	1
238.018	0.35004118	ANARCHIST	lure	n/a	n/a	n/a	1
238.368	0.549947745	FORGERY	lure	n/a	n/a	n/a	1
238.918	0.566701581	STIMULI	lure	n/a	n/a	n/a	1
239.485	0.699946926	SECESSION	lure	n/a	n/a	n/a	1
240.185	0.649990998	BRIGADE	lure	n/a	n/a	n/a	1
240.835	0.716656227	MARSHALL	lure	n/a	n/a	n/a	1
241.551	0.349994558	MIDPOINT	lure	n/a	n/a	n/a	1
241.901	2.016639632	PUTTY	long	n/a	n/a	n/a	1
243.918	0.39999278	FALSITY	lure	n/a	n/a	n/a	1
244.318	0.433406334	OUTBURST	lure	n/a	n/a	n/a	1
244.751	0.64996719	EVANGELIST	lure	n/a	n/a	n/a	1
245.401	0.383278583	SOPHOMORE	lure	n/a	n/a	n/a	1
245.784	0.649980915	EGGHEAD	lure	n/a	n/a	n/a	1
246.434	0.583388759	FEMININITY	lure	n/a	n/a	n/a	1
247.018	0.699987345	CAR	lure	n/a	n/a	n/a	1
247.718	0.633323096	POT	lure	n/a	n/a	n/a	1
248.351	0.583269746	HEARTACHE	lure	n/a	n/a	n/a	1
248.934	0.549990614	CLAMPDOWN	lure	n/a	n/a	n/a	1
249.484	0.683382805	PORTRAYAL	lure	n/a	n/a	n/a	1
250.168	0.43327016	LUMINARY	lure	n/a	n/a	n/a	1
250.601	2.016641065	RAVINE	long	n/a	n/a	n/a	1
252.618	0.533371072	DOORFRAME	lure	n/a	n/a	n/a	1
253.151	0.333329153	AUTOMATION	lure	n/a	n/a	n/a	1
253.484	0.633277458	SUPPORTER	lure	n/a	n/a	n/a	1
254.118	0.633323066	MEGAPHONE	lure	n/a	n/a	n/a	1
254.751	0.499993259	TERRORISM	lure	n/a	n/a	n/a	1
255.251	0.683322057	SCAVENGER	lure	n/a	n/a	n/a	1
255.934	0.483384458	PENDANT	lure	n/a	n/a	n/a	1
256.418	0.666601967	INTEGRITY	lure	n/a	n/a	n/a	1
257.084	0.600047864	VERANDA	lure	n/a	n/a	n/a	1
257.684	0.333272589	PENTAGON	lure	n/a	n/a	n/a	1
258.018	0.649989674	CHALET	lure	n/a	n/a	n/a	1
258.668	0.616659147	FOIL	short	n/a	n/a	n/a	1
259.284	0.516659006	PLAYSUIT	lure	n/a	n/a	n/a	1
259.801	0.600039698	VODKA	lure	n/a	n/a	n/a	1
260.401	0.466612162	SPONGE	lure	n/a	n/a	n/a	1
260.868	0.38332536	REPAST	lure	n/a	n/a	n/a	1
261.251	0.633322882	LARD	lure	n/a	n/a	n/a	1
261.884	0.433330477	RAPTURE	lure	n/a	n/a	n/a	1
262.318	0.483324631	MONGREL	lure	n/a	n/a	n/a	1
262.801	0.333331073	CLIENTELE	lure	n/a	n/a	n/a	1
263.134	0.666655872	SONNET	lure	n/a	n/a	n/a	1
263.801	0.533328148	REDHEAD	lure	n/a	n/a	n/a	1
264.334	0.516652739	DIALECTIC	lure	n/a	n/a	n/a	1
264.851	0.466665693	GRAIL	lure	n/a	n/a	n/a	1
265.318	0.633372484	PRODIGY	lure	n/a	n/a	n/a	1
265.951	0.416609768	DISHONESTY	lure	n/a	n/a	n/a	1
266.367	0.483384608	IVY	lure	n/a	n/a	n/a	1
266.851	2.016586681	MAST	long	n/a	n/a	n/a	1
268.867	0.38337129	OPIATE	lure	n/a	n/a	n/a	1
269.251	0.716664056	MOONSTONE	lure	n/a	n/a	n/a	1
269.967	0.749937103	ELITE	lure	n/a	n/a	n/a	1
270.717	0.716713307	WINDOWPANE	lure	n/a	n/a	n/a	1
271.434	0.516604269	SCHOOLWORK	lure	n/a	n/a	n/a	1
271.951	0.750045059	SUET	lure	n/a	n/a	n/a	1
272.701	0.583268465	STADIUM	lure	n/a	n/a	n/a	1
273.284	0.416714277	INCURSION	lure	n/a	n/a	n/a	1
273.701	0.566660673	LIGHTBULB	lure	n/a	n/a	n/a	1
274.267	0.466603048	LATECOMER	lure	n/a	n/a	n/a	1
274.734	0.371065546	TRANSLATOR	lure	n/a	n/a	n/a	1
275.105	0.612307198	DIRT	short	n/a	n/a	n/a	1
275.717	0.366661027	FRIDGE	lure	n/a	n/a	n/a	1
276.084	0.749936229	TURNTABLE	lure	n/a	n/a	n/a	1
276.834	0.466661819	TENET	lure	n/a	n/a	n/a	1
277.301	0.583323505	ASSISTANCE	lure	n/a	n/a	n/a	1
277.884	0.63332675	GENTLEMAN	lure	n/a	n/a	n/a	1
278.517	0.33332377	QUEEN	lure	n/a	n/a	n/a	1
278.851	0.699992375	COMMANDANT	lure	n/a	n/a	n/a	1
279.551	0.76665798	ASPIRATION	lure	n/a	n/a	n/a	1
280.317	0.600043084	STICKLER	lure	n/a	n/a	n/a	1
280.917	0.41660751	LABORER	lure	n/a	n/a	n/a	1
281.334	0.65003708	MAKEUP	lure	n/a	n/a	n/a	1
281.984	0.733276665	HAVOC	lure	n/a	n/a	n/a	1
282.717	0.483326473	FEROCITY	lure	n/a	n/a	n/a	1
283.201	0.616659756	CURB	short	n/a	n/a	n/a	1
283.817	0.733321519	CASHIER	lure	n/a	n/a	n/a	1
284.551	0.31665838	CHUTE	lure	n/a	n/a	n/a	1
284.867	0.333334145	FUNFAIR	lure	n/a	n/a	n/a	1
285.201	0.499993515	WATCHMAKER	lure	n/a	n/a	n/a	1
285.701	0.683320287	LOADER	lure	n/a	n/a	n/a	1
286.384	0.733324543	SHAMROCK	lure	n/a	n/a	n/a	1
287.117	0.549994373	SEAPORT	lure	n/a	n/a	n/a	1
287.667	0.499991515	DROUGHT	lure	n/a	n/a	n/a	1
288.167	0.533327542	HALO	lure	n/a	n/a	n/a	1
288.701	0.333381481	HISTORIAN	lure	n/a	n/a	n/a	1
289.034	0.399940538	DICTIONARY	lure	n/a	n/a	n/a	1
289.434	0.733321671	BUCKTOOTH	lure	n/a	n/a	n/a	1
290.167	0.600057574	WISP	lure	n/a	n/a	n/a	1
290.767	0.74997293	INCREASE	lure	n/a	n/a	n/a	1
291.517	0.566609614	MIDGET	lure	n/a	n/a	n/a	1
292.084	2.016638839	ARROW	long	n/a	n/a	n/a	1
294.1	0.349997385	SCHOOLROOM	lure	n/a	n/a	n/a	1
294.45	0.416657601	FIREWATER	lure	n/a	n/a	n/a	1
294.867	0.350051513	OFFSPRING	lure	n/a	n/a	n/a	1
295.217	0.666649897	LAUREL	lure	n/a	n/a	n/a	1
295.884	0.733277189	MILLER	lure	n/a	n/a	n/a	1
296.617	0.38332657	PUSHCART	lure	n/a	n/a	n/a	1
297	0.399990852	IMPLOSION	lure	n/a	n/a	n/a	1
297.4	0.650048465	VARIATION	lure	n/a	n/a	n/a	1
298.05	0.783266466	CENTRALISM	lure	n/a	n/a	n/a	1
298.834	0.433328998	CHECKUP	lure	n/a	n/a	n/a	1
299.267	0.616658643	DRUGGIST	lure	n/a	n/a	n/a	1
299.884	0.466660373	UNDERSHIRT	lure	n/a	n/a	n/a	1
300.35	0.616657179	TIRE	short	n/a	n/a	n/a	1
300.967	0.333386724	ANACONDA	lure	n/a	n/a	n/a	1
301.3	0.366603418	ALLIGATOR	lure	n/a	n/a	n/a	1
301.667	0.716650667	THROTTLE	lure	n/a	n/a	n/a	1
302.384	0.46666282	WELFARE	lure	n/a	n/a	n/a	1
302.85	0.602264839	STRIKER	lure	n/a	n/a	n/a	1
303.453	0.497719439	DISTENSION	lure	n/a	n/a	n/a	1
303.95	0.349998794	INDENT	lure	n/a	n/a	n/a	1
304.3	0.49999035	ASSIGNMENT	lure	n/a	n/a	n/a	1
304.8	0.633368226	INDICATOR	lure	n/a	n/a	n/a	1
305.434	0.533282667	DEALER	lure	n/a	n/a	n/a	1
305.967	0.450044414	ARMISTICE	lure	n/a	n/a	n/a	1
306.417	0.51660862	CUTLERY	lure	n/a	n/a	n/a	1
306.934	0.599987213	NIGHTIE	lure	n/a	n/a	n/a	1
307.534	0.684033392	CLIPBOARD	lure	n/a	n/a	n/a	1
308.218	0.465951849	GOLDMINE	lure	n/a	n/a	n/a	1
308.684	0.649994955	RAMP	short	n/a	n/a	n/a	1
309.334	0.56670123	HANGUP	lure	n/a	n/a	n/a	1
309.9	0.333284121	DISRESPECT	lure	n/a	n/a	n/a	1
310.234	0.616661161	CORDIALITY	lure	n/a	n/a	n/a	1
310.85	0.633324487	RUBDOWN	lure	n/a	n/a	n/a	1
311.484	0.685543836	PRECEPT	lure	n/a	n/a	n/a	1
312.169	0.497770937	SANDBANK	lure	n/a	n/a	n/a	1
312.667	0.366661789	VIDEOTAPE	lure	n/a	n/a	n/a	1
313.034	0.499993387	YOGURT	lure	n/a	n/a	n/a	1
313.533	0.466658809	QUESTIONER	lure	n/a	n/a	n/a	1
314	0.366662395	REPOSITORY	lure	n/a	n/a	n/a	1
314.367	0.449995656	RESPONDENT	lure	n/a	n/a	n/a	1
314.817	0.699990719	UTTERANCE	lure	n/a	n/a	n/a	1
315.517	0.616657447	DOUGHNUT	lure	n/a	n/a	n/a	1
316.133	0.416660043	EQUITY	lure	n/a	n/a	n/a	1
316.55	0.616659688	CORK	short	n/a	n/a	n/a	1
317.167	0.599988811	BULLRING	lure	n/a	n/a	n/a	1
317.767	0.449995872	DECATHLON	lure	n/a	n/a	n/a	1
318.217	0.737535157	RINGER	lure	n/a	n/a	n/a	1
318.954	0.762441396	SEALER	lure	n/a	n/a	n/a	1
319.717	0.733322477	COLA	lure	n/a	n/a	n/a	1
320.45	0.349993802	BIRTHMARK	lure	n/a	n/a	n/a	1
320.8	0.416663471	SKIT	lure	n/a	n/a	n/a	1
321.217	0.533327219	OILSKIN	lure	n/a	n/a	n/a	1
321.75	0.333323497	WARSHIP	lure	n/a	n/a	n/a	1
322.083	0.366665848	ARCHANGEL	lure	n/a	n/a	n/a	1
322.45	0.68332408	ANTENNAE	lure	n/a	n/a	n/a	1
323.133	0.61665173	CAFFEINE	lure	n/a	n/a	n/a	1
323.75	0.74999491	TREMOR	lure	n/a	n/a	n/a	1
324.5	0.516661723	BEESWAX	lure	n/a	n/a	n/a	1
325.017	2.066632994	MONSOON	long	n/a	n/a	n/a	1
327.083	0.552402751	NUGGET	lure	n/a	n/a	n/a	1
327.636	0.347583677	TIRADE	lure	n/a	n/a	n/a	1
327.983	0.58454412	MORON	lure	n/a	n/a	n/a	1
328.568	0.515444908	EXORCISM	lure	n/a	n/a	n/a	1
329.083	0.333330764	JACKRABBIT	lure	n/a	n/a	n/a	1
329.417	0.449993007	CAMEL	lure	n/a	n/a	n/a	1
329.867	0.533321414	INTRO	lure	n/a	n/a	n/a	1
330.4	0.616656658	INSANITY	lure	n/a	n/a	n/a	1
331.017	0.583327253	TOOTHPASTE	lure	n/a	n/a	n/a	1
331.6	0.649991205	SOMEONE	lure	n/a	n/a	n/a	1
332.25	0.549991815	GALLUP	lure	n/a	n/a	n/a	1
332.8	0.449991729	LAVA	lure	n/a	n/a	n/a	1
333.25	0.61666345	ASHES	short	n/a	n/a	n/a	1
333.867	0.749990301	REPARATION	lure	n/a	n/a	n/a	1
334.617	0.716652488	SMUDGE	lure	n/a	n/a	n/a	1
335.333	0.599993756	COLUMNIST	lure	n/a	n/a	n/a	1
335.933	0.566657171	AURORA	lure	n/a	n/a	n/a	1
336.5	0.349995442	NODE	lure	n/a	n/a	n/a	1
336.85	0.549991298	SCRIBE	lure	n/a	n/a	n/a	1
337.4	0.616701904	THRESHOLD	lure	n/a	n/a	n/a	1
338.017	0.433282762	DICHOTOMY	lure	n/a	n/a	n/a	1
338.45	0.583320906	SNOUT	lure	n/a	n/a	n/a	1
339.033	0.635860949	ONYX	lure	n/a	n/a	n/a	1
339.669	0.351560442	ERUPTION	lure	n/a	n/a	n/a	1
340.021	0.497566534	CHOIR	lure	n/a	n/a	n/a	1
340.518	0.332559329	MAPLE	lure	n/a	n/a	n/a	1
340.851	0.449094871	MOGUL	lure	n/a	n/a	n/a	1
341.3	2.016635636	MACHINE	long	n/a	n/a	n/a	1
343.316	0.550041571	INFORMANT	lure	n/a	n/a	n/a	1
343.866	0.783274687	NUTHOUSE	lure	n/a	n/a	n/a	1
344.65	0.699989377	HAIRBRUSH	lure	n/a	n/a	n/a	1
345.35	0.38332831	LUCK	lure	n/a	n/a	n/a	1
345.733	0.683322799	HEDONISM	lure	n/a	n/a	n/a	1
346.416	0.70003722	MUSICIAN	lure	n/a	n/a	n/a	1
347.116	0.466658177	CASTER	lure	n/a	n/a	n/a	1
347.583	0.649946547	IMMERSION	lure	n/a	n/a	n/a	1
348.233	0.636825904	CLASSROOM	lure	n/a	n/a	n/a	1
348.87	0.71756354	WIZARD	lure	n/a	n/a	n/a	1
349.587	2.014161553	CONE	long	n/a	n/a	n/a	1
351.602	0.398062191	SWEETHEART	lure	n/a	n/a	n/a	1
352	0.449992707	PORTION	lure	n/a	n/a	n/a	1
352.45	0.333329829	MISSTEP	lure	n/a	n/a	n/a	1
352.783	0.633387608	FOOLERY	lure	n/a	n/a	n/a	1
353.416	0.466718899	ORPHANAGE	lure	n/a	n/a	n/a	1
353.883	0.666536336	CIVILITY	lure	n/a	n/a	n/a	1
354.55	0.699991377	KICKOFF	lure	n/a	n/a	n/a	1
355.25	0.500038084	DUCKY	lure	n/a	n/a	n/a	1
355.75	0.48327917	WRATH	lure	n/a	n/a	n/a	1
356.233	0.466660546	BRAWN	lure	n/a	n/a	n/a	1
356.7	0.666657426	CHAPEL	lure	n/a	n/a	n/a	1
357.366	0.649991073	SEQUIN	lure	n/a	n/a	n/a	1
358.016	1.016654004	KIWI	fruit	622	2	2	1
359.033	0.483323205	MARBLE	lure	n/a	n/a	n/a	1
359.516	0.399996412	DISHWATER	lure	n/a	n/a	n/a	1
359.916	0.616656254	PIER	lure	n/a	n/a	n/a	1
360.533	0.583327207	PRODUCTION	lure	n/a	n/a	n/a	1
361.116	0.633323159	STARGAZER	lure	n/a	n/a	n/a	1
361.749	0.619671528	MARKSMAN	lure	n/a	n/a	n/a	1
362.369	0.55056611	REBIRTH	lure	n/a	n/a	n/a	1
362.92	0.463072097	OUTLET	lure	n/a	n/a	n/a	1
363.383	0.533324811	GASOLINE	lure	n/a	n/a	n/a	1
363.916	0.599992346	WHALER	lure	n/a	n/a	n/a	1
364.516	0.316663021	SCOURGE	lure	n/a	n/a	n/a	1
364.833	0.599991094	GROCERY	lure	n/a	n/a	n/a	1
365.433	0.549989399	ALTERATION	lure	n/a	n/a	n/a	1
365.983	0.383333139	PHOTOFLASH	lure	n/a	n/a	n/a	1
366.366	0.616656785	LIGHT	short	n/a	n/a	n/a	1
366.983	0.599992247	REFILL	lure	n/a	n/a	n/a	1
367.583	0.383325741	PINWHEEL	lure	n/a	n/a	n/a	1
367.966	0.583325847	HAY	lure	n/a	n/a	n/a	1
368.549	0.44999426	VIOLATION	lure	n/a	n/a	n/a	1
368.999	0.751582485	SAWMILL	lure	n/a	n/a	n/a	1
369.751	0.331737082	LONGEVITY	lure	n/a	n/a	n/a	1
370.083	0.766656156	MATRIX	lure	n/a	n/a	n/a	1
370.849	0.683317444	BEANSTALK	lure	n/a	n/a	n/a	1
371.533	0.666660868	LUXURY	lure	n/a	n/a	n/a	1
372.199	0.633324643	PAPA	lure	n/a	n/a	n/a	1
372.833	0.366662114	PARODY	lure	n/a	n/a	n/a	1
373.199	0.753110781	CENTURION	lure	n/a	n/a	n/a	1
373.952	0.496872672	CHARADE	lure	n/a	n/a	n/a	1
374.449	2.016699025	BRUSH	long	n/a	n/a	n/a	1
376.466	0.48326452	WIGHT	lure	n/a	n/a	n/a	1
376.949	0.74999185	UPROAR	lure	n/a	n/a	n/a	1
377.699	0.516659783	ERASURE	lure	n/a	n/a	n/a	1
378.216	0.583378047	DREAMLAND	lure	n/a	n/a	n/a	1
378.799	0.649935828	DONOR	lure	n/a	n/a	n/a	1
379.449	0.683380568	ACCORDION	lure	n/a	n/a	n/a	1
380.133	0.433326421	SOLSTICE	lure	n/a	n/a	n/a	1
380.566	0.599937889	BROTHER	lure	n/a	n/a	n/a	1
381.166	0.566655594	PEBBLE	lure	n/a	n/a	n/a	1
381.733	0.666714967	COLONY	lure	n/a	n/a	n/a	1
382.399	0.516602926	NONPAYMENT	lure	n/a	n/a	n/a	1
382.916	1.016648854	ORANGE	fruit	747	2	2	1
383.933	0.736305615	ALLOCATION	lure	n/a	n/a	n/a	1
384.669	0.413743908	MIDLAND	lure	n/a	n/a	n/a	1
385.083	0.716594109	CANDY	lure	n/a	n/a	n/a	1
385.799	0.683324	ENTRAPMENT	lure	n/a	n/a	n/a	1
386.482	0.416721694	WEIRDO	lure	n/a	n/a	n/a	1
386.899	0.733323808	SCAPULA	lure	n/a	n/a	n/a	1
387.633	0.649927996	RESHUFFLE	lure	n/a	n/a	n/a	1
388.282	0.60183434	OBLIVION	lure	n/a	n/a	n/a	1
388.884	0.648149659	DECIMATION	lure	n/a	n/a	n/a	1
389.532	0.433326191	FENDER	lure	n/a	n/a	n/a	1
389.966	0.416660642	CONGRUENCE	lure	n/a	n/a	n/a	1
390.382	0.716720097	YARD	lure	n/a	n/a	n/a	1
391.099	1.016652345	STRAWBERRY	fruit	611	2	2	1
392.116	0.454395697	GESTATION	lure	n/a	n/a	n/a	1
392.57	0.462196315	PRECEDENCE	lure	n/a	n/a	n/a	1
393.032	0.41665668	FERTILITY	lure	n/a	n/a	n/a	1
393.449	0.483330302	SYNTAX	lure	n/a	n/a	n/a	1
393.932	0.366661934	PITCHFORK	lure	n/a	n/a	n/a	1
394.299	0.349995523	TAXIDERMY	lure	n/a	n/a	n/a	1
394.649	0.666713998	BUREAUCRAT	lure	n/a	n/a	n/a	1
395.316	0.349937005	FELLOWSHIP	lure	n/a	n/a	n/a	1
395.666	0.666654057	KEEPER	lure	n/a	n/a	n/a	1
396.332	0.549994692	ACTION	lure	n/a	n/a	n/a	1
396.882	0.349995383	SIDELIGHT	lure	n/a	n/a	n/a	1
397.232	0.533326404	SPEEDWAY	lure	n/a	n/a	n/a	1
397.766	0.649992286	REDDING	lure	n/a	n/a	n/a	1
398.416	0.649989356	COUNTDOWN	lure	n/a	n/a	n/a	1
399.066	0.333330086	DARLING	lure	n/a	n/a	n/a	1
399.399	2.016641292	CLUB	long	n/a	n/a	n/a	1
401.416	0.583322967	TUMBLER	lure	n/a	n/a	n/a	1
401.999	0.633321437	MALICE	lure	n/a	n/a	n/a	1
402.632	0.51665732	DIGGER	lure	n/a	n/a	n/a	1
403.149	0.40006112	BONEHEAD	lure	n/a	n/a	n/a	1
403.549	0.566595975	BASSINET	lure	n/a	n/a	n/a	1
404.116	0.749990482	TREE	lure	n/a	n/a	n/a	1
404.866	0.599990189	ALLOWANCE	lure	n/a	n/a	n/a	1
405.466	0.749989103	REMISSION	lure	n/a	n/a	n/a	1
406.216	0.599990646	HERMIT	lure	n/a	n/a	n/a	1
406.816	0.416661755	PASSAGEWAY	lure	n/a	n/a	n/a	1
407.232	0.550038005	OVERDRAFT	lure	n/a	n/a	n/a	1
407.782	1.016607804	CHERRY	fruit	664	2	2	1
408.799	0.483325786	MUSEUM	lure	n/a	n/a	n/a	1
409.282	0.449992346	TAXONOMY	lure	n/a	n/a	n/a	1
409.732	0.433328334	DEER	lure	n/a	n/a	n/a	1
410.165	0.73434658	EXPENSE	lure	n/a	n/a	n/a	1
410.9	0.765631927	RISER	lure	n/a	n/a	n/a	1
411.665	0.61670538	COCHLEA	lure	n/a	n/a	n/a	1
412.282	0.549946025	TUNDRA	lure	n/a	n/a	n/a	1
412.832	0.38332741	BANDAGE	lure	n/a	n/a	n/a	1
413.215	0.566715483	STALLION	lure	n/a	n/a	n/a	1
413.782	0.616600733	TRIBUTARY	lure	n/a	n/a	n/a	1
414.399	0.616661753	CHILDREN	lure	n/a	n/a	n/a	1
415.015	0.666653837	APOSTLE	lure	n/a	n/a	n/a	1
415.682	0.61670743	CAMERA	lure	n/a	n/a	n/a	1
416.299	2.016591024	SAIL	long	n/a	n/a	n/a	1
418.315	0.6500359	SEDAN	lure	n/a	n/a	n/a	1
418.965	0.616611796	HITTER	lure	n/a	n/a	n/a	1
419.582	0.68332318	STREAKER	lure	n/a	n/a	n/a	1
420.265	0.699990054	JOSH	lure	n/a	n/a	n/a	1
420.965	0.516659392	CATTLEMEN	lure	n/a	n/a	n/a	1
421.482	0.483327395	GESTALT	lure	n/a	n/a	n/a	1
421.965	0.449995737	INHALER	lure	n/a	n/a	n/a	1
422.415	0.366660137	NUTCRACKER	lure	n/a	n/a	n/a	1
422.782	0.349992762	BASEMENT	lure	n/a	n/a	n/a	1
423.132	0.349996618	GASMASK	lure	n/a	n/a	n/a	1
423.482	0.533324951	STRETCHER	lure	n/a	n/a	n/a	1
424.015	0.466660738	THEOLOGY	lure	n/a	n/a	n/a	1
424.482	1.016653273	STRAWBERRY	fruit	877	2	2	1
425.499	0.749987843	EXPLOSION	lure	n/a	n/a	n/a	1
426.249	0.766657486	FLUX	lure	n/a	n/a	n/a	1
427.015	0.483324598	ACRONYM	lure	n/a	n/a	n/a	1
427.499	0.499994716	SAINTHOOD	lure	n/a	n/a	n/a	1
427.999	0.333327754	BEACON	lure	n/a	n/a	n/a	1
428.332	0.416661597	AUDACITY	lure	n/a	n/a	n/a	1
428.749	0.433325041	SPOKESMAN	lure	n/a	n/a	n/a	1
429.182	0.616658046	SCAPEGOAT	lure	n/a	n/a	n/a	1
429.799	0.41666175	BEAUTY	lure	n/a	n/a	n/a	1
430.215	0.633325364	CAVITY	lure	n/a	n/a	n/a	1
430.849	0.699989666	CORONER	lure	n/a	n/a	n/a	1
431.549	0.549993441	PAPERBACK	lure	n/a	n/a	n/a	1
432.098	0.616718781	PRAYER	lure	n/a	n/a	n/a	1
432.715	0.616594642	DRILL	short	n/a	n/a	n/a	1
433.332	0.666658163	STRAINER	lure	n/a	n/a	n/a	1
433.998	0.599995946	POSTMAN	lure	n/a	n/a	n/a	1
434.598	0.600038508	VIVACITY	lure	n/a	n/a	n/a	1
435.199	0.583332869	GASLIGHT	lure	n/a	n/a	n/a	1
435.782	0.649931855	INGENUITY	lure	n/a	n/a	n/a	1
436.432	0.433328885	GENEROSITY	lure	n/a	n/a	n/a	1
436.865	0.466658589	ALMANAC	lure	n/a	n/a	n/a	1
437.332	0.434363895	AMPHIBIAN	lure	n/a	n/a	n/a	1
437.766	0.68228455	SNAPBACK	lure	n/a	n/a	n/a	1
438.448	0.483368239	KILO	lure	n/a	n/a	n/a	1
438.932	0.600016501	ART	lure	n/a	n/a	n/a	1
439.532	0.533262738	FISHERMAN	lure	n/a	n/a	n/a	1
440.065	0.4333229	SEMINAR	lure	n/a	n/a	n/a	1
440.498	0.383392625	SNIFFER	lure	n/a	n/a	n/a	1
440.882	0.666595709	DEPOT	short	n/a	n/a	n/a	1
441.548	0.317223409	ESSENCE	lure	n/a	n/a	n/a	1
441.866	0.53556463	CREATOR	lure	n/a	n/a	n/a	1
442.401	0.583566503	KICKER	lure	n/a	n/a	n/a	1
442.985	0.363620761	EASTERNER	lure	n/a	n/a	n/a	1
443.348	0.349996403	HOLSTER	lure	n/a	n/a	n/a	1
443.698	0.7499899	SERVICEMEN	lure	n/a	n/a	n/a	1
444.448	0.633323971	RENEGADE	lure	n/a	n/a	n/a	1
445.082	0.333388667	QUILL	lure	n/a	n/a	n/a	1
445.415	0.549986952	FOREWORD	lure	n/a	n/a	n/a	1
445.965	0.449938221	BUYER	lure	n/a	n/a	n/a	1
446.415	0.499993978	RUNOFF	lure	n/a	n/a	n/a	1
446.915	0.550035061	GIN	lure	n/a	n/a	n/a	1
447.465	0.383284382	THRIFT	lure	n/a	n/a	n/a	1
447.848	0.416661452	CANDLE	lure	n/a	n/a	n/a	1
448.265	0.333328403	PRINTOUT	lure	n/a	n/a	n/a	1
448.598	1.016714694	STRAWBERRY	fruit	648	2	2	1
449.615	0.316599406	CORTEX	lure	n/a	n/a	n/a	1
449.932	0.351274612	ROTUNDA	lure	n/a	n/a	n/a	1
450.283	0.634567602	OVERCOAT	lure	n/a	n/a	n/a	1
450.917	0.697467104	SLANG	lure	n/a	n/a	n/a	1
451.615	0.636669996	LAD	lure	n/a	n/a	n/a	1
452.252	0.729976989	PENALTY	lure	n/a	n/a	n/a	1
452.982	0.533327015	RAIDER	lure	n/a	n/a	n/a	1
453.515	0.649992739	HOTHEAD	lure	n/a	n/a	n/a	1
454.165	0.583367539	GLYCERINE	lure	n/a	n/a	n/a	1
454.748	0.366614598	STEELMAKER	lure	n/a	n/a	n/a	1
455.115	0.349999416	CIDER	lure	n/a	n/a	n/a	1
455.465	0.569626663	TRAVELER	lure	n/a	n/a	n/a	1
456.034	0.430359026	EAGLE	lure	n/a	n/a	n/a	1
456.465	0.383372292	FLATTERY	lure	n/a	n/a	n/a	1
456.848	0.63327391	DRUDGERY	lure	n/a	n/a	n/a	1
457.481	0.316667115	COOLANT	lure	n/a	n/a	n/a	1
457.798	0.633324142	LADYBUG	lure	n/a	n/a	n/a	1
458.431	0.433327256	COMBUSTION	lure	n/a	n/a	n/a	1
458.865	0.466662105	CENTRIFUGE	lure	n/a	n/a	n/a	1
459.331	0.533370338	PUZZLEMENT	lure	n/a	n/a	n/a	1
459.865	0.716612904	REPLAY	lure	n/a	n/a	n/a	1
460.581	0.31670879	VICTOR	lure	n/a	n/a	n/a	1
460.898	0.549991471	GUNNER	lure	n/a	n/a	n/a	1
461.448	0.733272798	STEREO	lure	n/a	n/a	n/a	1
462.181	0.549995489	BREAKDOWN	lure	n/a	n/a	n/a	1
462.731	0.616702126	PONE	lure	n/a	n/a	n/a	1
463.348	0.399950914	ASCENT	lure	n/a	n/a	n/a	1
463.748	0.366661164	ABDUCTION	lure	n/a	n/a	n/a	1
464.115	0.5833241	DESTROYER	lure	n/a	n/a	n/a	1
464.698	n/a	SPORTSMEN	lure	n/a	n/a	n/a	1