onset	duration	stim	cond	RT	resp	cresp	acc
4.05	0.383387232	BYSTANDER	lure	n/a	n/a	n/a	1
4.433	0.366604045	AMNESTY	lure	n/a	n/a	n/a	1
4.8	0.499992906	DRIVEWAY	lure	n/a	n/a	n/a	1
5.3	0.766655671	EXHALATION	lure	n/a	n/a	n/a	1
6.066	0.583324624	BUFFET	lure	n/a	n/a	n/a	1
6.65	0.433385268	FOOTBALL	lure	n/a	n/a	n/a	1
7.083	0.41665345	LOCALITY	lure	n/a	n/a	n/a	1
7.5	0.74998603	NAVEL	lure	n/a	n/a	n/a	1
8.25	2.016648107	RAVINE	long	n/a	n/a	n/a	1
10.266	0.433273542	URBANISM	lure	n/a	n/a	n/a	1
10.7	0.483324974	MORTAR	lure	n/a	n/a	n/a	1
11.183	0.566654922	MONOXIDE	lure	n/a	n/a	n/a	1
11.75	0.3833314	TYPHOON	lure	n/a	n/a	n/a	1
12.133	0.566659263	INSECURITY	lure	n/a	n/a	n/a	1
12.7	0.583325711	FLORA	lure	n/a	n/a	n/a	1
13.283	0.683318819	BREAKOUT	lure	n/a	n/a	n/a	1
13.966	0.616719989	MARSUPIAL	lure	n/a	n/a	n/a	1
14.583	0.733265873	SONGBOOK	lure	n/a	n/a	n/a	1
15.316	0.733322946	COWHAND	lure	n/a	n/a	n/a	1
16.05	0.418569198	FOOTLIGHT	lure	n/a	n/a	n/a	1
16.468	0.614751355	CORK	short	n/a	n/a	n/a	1
17.083	0.633375661	SECLUSION	lure	n/a	n/a	n/a	1
17.716	0.700000296	VISITATION	lure	n/a	n/a	n/a	1
18.416	0.349929164	FOLKLORIST	lure	n/a	n/a	n/a	1
18.766	0.666658387	BROW	lure	n/a	n/a	n/a	1
19.433	0.499994129	RITE	lure	n/a	n/a	n/a	1
19.933	0.549993516	MAESTRO	lure	n/a	n/a	n/a	1
20.483	0.566656559	RAINWATER	lure	n/a	n/a	n/a	1
21.049	0.749990016	JOKER	lure	n/a	n/a	n/a	1
21.799	0.666654676	NEWT	lure	n/a	n/a	n/a	1
22.466	0.736463613	SEAWAY	lure	n/a	n/a	n/a	1
23.203	0.680231258	SCHISM	lure	n/a	n/a	n/a	1
23.883	0.399950188	METHYL	lure	n/a	n/a	n/a	1
24.283	2.016637118	CONE	long	n/a	n/a	n/a	1
26.299	0.73332567	FROSTBITE	lure	n/a	n/a	n/a	1
27.033	0.435328442	KNACK	lure	n/a	n/a	n/a	1
27.468	0.364655036	COMMUNISM	lure	n/a	n/a	n/a	1
27.833	0.449996439	SALESMEN	lure	n/a	n/a	n/a	1
28.283	0.733318376	REPUTATION	lure	n/a	n/a	n/a	1
29.016	0.350001632	WINDOW	lure	n/a	n/a	n/a	1
29.366	0.633322682	SPATULA	lure	n/a	n/a	n/a	1
29.999	0.366661726	YEARBOOK	lure	n/a	n/a	n/a	1
30.366	0.733326174	TAILWIND	lure	n/a	n/a	n/a	1
31.099	0.516658013	TRANSDUCER	lure	n/a	n/a	n/a	1
31.616	0.683317491	ACADEMY	lure	n/a	n/a	n/a	1
32.299	0.450053491	PUDDLE	lure	n/a	n/a	n/a	1
32.749	1.016660549	KIWI	fruit	656	2	2	1
33.766	0.483264092	ROOFTOP	lure	n/a	n/a	n/a	1
34.249	0.666714456	BRIMSTONE	lure	n/a	n/a	n/a	1
34.916	0.433268747	DOCKET	lure	n/a	n/a	n/a	1
35.349	0.533381529	SHEEN	lure	n/a	n/a	n/a	1
35.883	0.716657683	RAINBOW	lure	n/a	n/a	n/a	1
36.599	0.666602521	AGITATION	lure	n/a	n/a	n/a	1
37.266	0.449991609	GYPSY	lure	n/a	n/a	n/a	1
37.716	0.750043347	DOUBTER	lure	n/a	n/a	n/a	1
38.466	0.533273128	PARCHMENT	lure	n/a	n/a	n/a	1
38.999	0.599986282	LIPSTICK	lure	n/a	n/a	n/a	1
39.599	0.383330201	LIGHTSHIP	lure	n/a	n/a	n/a	1
39.983	0.699994271	JAILER	lure	n/a	n/a	n/a	1
40.683	0.633324467	FOLLICLE	lure	n/a	n/a	n/a	1
41.316	1.016653526	BERRY	fruit	633	2	2	1
42.333	0.383325217	LADING	lure	n/a	n/a	n/a	1
42.716	0.450057573	NOVEL	lure	n/a	n/a	n/a	1
43.166	0.39998129	STILT	lure	n/a	n/a	n/a	1
43.566	0.41660988	UPSHOT	lure	n/a	n/a	n/a	1
43.983	0.650038682	LIBRARIAN	lure	n/a	n/a	n/a	1
44.633	0.716675049	FINGERTIP	lure	n/a	n/a	n/a	1
45.349	0.649925188	PROSECUTOR	lure	n/a	n/a	n/a	1
45.999	0.366661636	PURSUER	lure	n/a	n/a	n/a	1
46.366	0.59999233	BRIDEGROOM	lure	n/a	n/a	n/a	1
46.966	0.633390549	REGENT	lure	n/a	n/a	n/a	1
47.599	0.516591756	AMUSEMENT	lure	n/a	n/a	n/a	1
48.116	0.433377135	SPECIALTY	lure	n/a	n/a	n/a	1
48.549	0.349947408	BUFFALO	lure	n/a	n/a	n/a	1
48.899	0.399994039	MUSCLEMAN	lure	n/a	n/a	n/a	1
49.299	2.016638729	BRUSH	long	n/a	n/a	n/a	1
51.316	0.349990871	SURGERY	lure	n/a	n/a	n/a	1
51.666	0.316663963	GALLEY	lure	n/a	n/a	n/a	1
51.982	0.599992355	SURCHARGE	lure	n/a	n/a	n/a	1
52.582	0.668788685	FLAGSHIP	lure	n/a	n/a	n/a	1
53.251	0.54792331	BUSYBODY	lure	n/a	n/a	n/a	1
53.799	0.483311628	WIDOWER	lure	n/a	n/a	n/a	1
54.282	0.650001484	SLATE	lure	n/a	n/a	n/a	1
54.932	0.466659616	FALCON	lure	n/a	n/a	n/a	1
55.399	0.516604024	FREEBOARD	lure	n/a	n/a	n/a	1
55.916	0.333326368	PLAYGROUND	lure	n/a	n/a	n/a	1
56.249	0.499986785	CHARIOT	lure	n/a	n/a	n/a	1
56.749	0.366669737	UNICORN	lure	n/a	n/a	n/a	1
57.116	1.016714807	MANGO	fruit	802	2	2	1
58.132	0.783258127	ARSON	lure	n/a	n/a	n/a	1
58.916	0.749985226	BEELINE	lure	n/a	n/a	n/a	1
59.666	0.616659549	SIGNALMAN	lure	n/a	n/a	n/a	1
60.282	0.333386889	TOASTER	lure	n/a	n/a	n/a	1
60.616	0.48331745	CHARISMA	lure	n/a	n/a	n/a	1
61.099	0.449947335	UNANIMITY	lure	n/a	n/a	n/a	1
61.549	0.633324267	HEATHER	lure	n/a	n/a	n/a	1
62.182	0.716656887	UBIQUITY	lure	n/a	n/a	n/a	1
62.899	0.349994618	CARTWHEEL	lure	n/a	n/a	n/a	1
63.249	0.449994563	BEARSKIN	lure	n/a	n/a	n/a	1
63.699	0.783320622	MENU	lure	n/a	n/a	n/a	1
64.482	0.349991132	EMULATION	lure	n/a	n/a	n/a	1
64.832	0.350049368	SHIPWRECK	lure	n/a	n/a	n/a	1
65.182	0.616612728	DIRT	short	n/a	n/a	n/a	1
65.799	0.44999184	DEED	lure	n/a	n/a	n/a	1
66.249	0.733322083	MANIFESTO	lure	n/a	n/a	n/a	1
66.982	0.449992456	ENTIRETY	lure	n/a	n/a	n/a	1
67.432	0.749991718	INNING	lure	n/a	n/a	n/a	1
68.182	0.483320655	SERPENT	lure	n/a	n/a	n/a	1
68.665	0.533330562	HOOKY	lure	n/a	n/a	n/a	1
69.199	0.6167064	INVESTMENT	lure	n/a	n/a	n/a	1
69.816	0.383278776	ALGEBRA	lure	n/a	n/a	n/a	1
70.199	0.483326841	SAWHORSE	lure	n/a	n/a	n/a	1
70.682	0.683323155	CAMERAMEN	lure	n/a	n/a	n/a	1
71.365	0.566660819	TANDEM	lure	n/a	n/a	n/a	1
71.932	0.68337733	APPENDAGE	lure	n/a	n/a	n/a	1
72.615	0.649936457	WHIRLPOOL	lure	n/a	n/a	n/a	1
73.265	0.566655043	FARCE	lure	n/a	n/a	n/a	1
73.832	0.616662038	DRILL	short	n/a	n/a	n/a	1
74.449	0.670520171	ARK	lure	n/a	n/a	n/a	1
75.119	0.496128156	FEEDBAG	lure	n/a	n/a	n/a	1
75.615	0.749992171	EPISTLE	lure	n/a	n/a	n/a	1
76.365	0.566653678	DIRECTOR	lure	n/a	n/a	n/a	1
76.932	0.599996326	SALAMANDER	lure	n/a	n/a	n/a	1
77.532	0.566657087	LINEAGE	lure	n/a	n/a	n/a	1
78.099	0.616657089	QUANDARY	lure	n/a	n/a	n/a	1
78.715	0.566658438	GOURMET	lure	n/a	n/a	n/a	1
79.282	0.466659679	RAGTAG	lure	n/a	n/a	n/a	1
79.749	0.616657367	SOCIETY	lure	n/a	n/a	n/a	1
80.365	0.483326795	PREDATOR	lure	n/a	n/a	n/a	1
80.849	0.483326261	MICROSCOPY	lure	n/a	n/a	n/a	1
81.332	0.416663933	STAPLER	lure	n/a	n/a	n/a	1
81.749	2.016639658	PUTTY	long	n/a	n/a	n/a	1
83.765	0.449990065	HILLSIDE	lure	n/a	n/a	n/a	1
84.215	0.553568274	FENCER	lure	n/a	n/a	n/a	1
84.769	0.713083034	COOKBOOK	lure	n/a	n/a	n/a	1
85.482	0.499994419	FLASHBULB	lure	n/a	n/a	n/a	1
85.982	0.366722812	SYLLABLE	lure	n/a	n/a	n/a	1
86.349	0.683263688	PAINTBRUSH	lure	n/a	n/a	n/a	1
87.032	0.666651995	WORKHOUSE	lure	n/a	n/a	n/a	1
87.699	0.64999079	FALLOFF	lure	n/a	n/a	n/a	1
88.349	0.616662229	TASSEL	lure	n/a	n/a	n/a	1
88.965	0.616657563	BREADFRUIT	lure	n/a	n/a	n/a	1
89.582	0.383326172	SOYBEAN	lure	n/a	n/a	n/a	1
89.965	0.616653825	DEPOT	short	n/a	n/a	n/a	1
90.582	0.466660665	TRINKET	lure	n/a	n/a	n/a	1
91.049	0.766660435	STRONGHOLD	lure	n/a	n/a	n/a	1
91.815	0.433324953	TEACAKE	lure	n/a	n/a	n/a	1
92.248	0.38332769	CHEESECAKE	lure	n/a	n/a	n/a	1
92.632	0.649994577	REPRINT	lure	n/a	n/a	n/a	1
93.282	0.533322828	RELATION	lure	n/a	n/a	n/a	1
93.815	0.633330344	BEQUEST	lure	n/a	n/a	n/a	1
94.448	0.399985926	CRATE	lure	n/a	n/a	n/a	1
94.848	0.683322814	SENATOR	lure	n/a	n/a	n/a	1
95.532	0.383331149	ANKLET	lure	n/a	n/a	n/a	1
95.915	0.749990988	HOTPLATE	lure	n/a	n/a	n/a	1
96.665	0.599990537	ANEMIA	lure	n/a	n/a	n/a	1
97.265	0.686447798	ENTROPY	lure	n/a	n/a	n/a	1
97.952	0.334559738	PINNACLE	lure	n/a	n/a	n/a	1
98.286	2.014375276	MONSOON	long	n/a	n/a	n/a	1
100.3	0.783348902	PILGRIM	lure	n/a	n/a	n/a	1
101.084	0.684793868	EXPERT	lure	n/a	n/a	n/a	1
101.769	0.513120315	STEAMBOAT	lure	n/a	n/a	n/a	1
102.282	0.549946983	SILK	lure	n/a	n/a	n/a	1
102.832	0.699987723	BOWSTRING	lure	n/a	n/a	n/a	1
103.532	0.316660288	MOTORCAR	lure	n/a	n/a	n/a	1
103.848	0.366725085	LOVER	lure	n/a	n/a	n/a	1
104.215	0.549976181	SEVERITY	lure	n/a	n/a	n/a	1
104.765	0.433281431	MIDNIGHT	lure	n/a	n/a	n/a	1
105.198	0.733369305	HALTER	lure	n/a	n/a	n/a	1
105.932	0.399946216	EVOLUTION	lure	n/a	n/a	n/a	1
106.332	1.016654417	PEACH	fruit	626	2	2	1
107.348	0.333372472	PANCAKE	lure	n/a	n/a	n/a	1
107.682	0.549995918	LYRICIST	lure	n/a	n/a	n/a	1
108.232	0.584320448	ATHEISM	lure	n/a	n/a	n/a	1
108.816	0.749005096	WREATH	lure	n/a	n/a	n/a	1
109.565	0.716597239	ROULETTE	lure	n/a	n/a	n/a	1
110.282	0.749991635	APATHY	lure	n/a	n/a	n/a	1
111.032	0.704736405	CONSTANCY	lure	n/a	n/a	n/a	1
111.736	0.545246707	UNDERTAKER	lure	n/a	n/a	n/a	1
112.282	0.416656735	MILLENNIA	lure	n/a	n/a	n/a	1
112.698	0.483330655	GUY	lure	n/a	n/a	n/a	1
113.182	0.433386798	DEJECTION	lure	n/a	n/a	n/a	1
113.615	0.516658391	BLOWUP	lure	n/a	n/a	n/a	1
114.132	0.633325603	ADDITIVE	lure	n/a	n/a	n/a	1
114.765	2.016580623	SAIL	long	n/a	n/a	n/a	1
116.781	0.500047202	FORMULA	lure	n/a	n/a	n/a	1
117.282	0.466599509	CAMPFIRE	lure	n/a	n/a	n/a	1
117.748	0.750048614	HUMPBACK	lure	n/a	n/a	n/a	1
118.498	0.599994247	BLUEFISH	lure	n/a	n/a	n/a	1
119.098	0.483265874	KNOCKER	lure	n/a	n/a	n/a	1
119.581	0.64999591	SLEDGE	lure	n/a	n/a	n/a	1
120.231	0.716657898	SKYDIVER	lure	n/a	n/a	n/a	1
120.948	0.599989598	LINGO	lure	n/a	n/a	n/a	1
121.548	0.733320984	BASKETWORK	lure	n/a	n/a	n/a	1
122.281	0.58332288	PROXIMITY	lure	n/a	n/a	n/a	1
122.865	0.716658449	HEADHUNTER	lure	n/a	n/a	n/a	1
123.581	0.616656101	ASHES	short	n/a	n/a	n/a	1
124.198	0.649991394	DENTISTRY	lure	n/a	n/a	n/a	1
124.848	0.549992639	TELESCOPE	lure	n/a	n/a	n/a	1
125.398	0.699994423	SONATA	lure	n/a	n/a	n/a	1
126.098	0.316660279	FLINT	lure	n/a	n/a	n/a	1
126.415	0.599992768	CHECKBOOK	lure	n/a	n/a	n/a	1
127.015	0.349992957	BOOKLET	lure	n/a	n/a	n/a	1
127.365	0.316659004	ALIGNMENT	lure	n/a	n/a	n/a	1
127.681	0.56666179	DEVOTEE	lure	n/a	n/a	n/a	1
128.248	0.533324918	RESPONSE	lure	n/a	n/a	n/a	1
128.781	0.366666769	BENCH	lure	n/a	n/a	n/a	1
129.148	0.33332587	PLAYTIME	lure	n/a	n/a	n/a	1
129.481	0.383326622	ROBBER	lure	n/a	n/a	n/a	1
129.865	0.383326922	RIVERBOAT	lure	n/a	n/a	n/a	1
130.248	0.533327945	SIDELINE	lure	n/a	n/a	n/a	1
130.781	0.733322923	CONGESTION	lure	n/a	n/a	n/a	1
131.515	0.383324515	VITALITY	lure	n/a	n/a	n/a	1
131.898	1.016657311	ELDERBERRY	fruit	684	2	2	1
132.915	0.449991676	MILLILITER	lure	n/a	n/a	n/a	1
133.365	0.733324726	PUN	lure	n/a	n/a	n/a	1
134.098	0.699987896	SANCTIMONY	lure	n/a	n/a	n/a	1
134.798	0.549995429	PASSERBY	lure	n/a	n/a	n/a	1
135.348	0.449990734	JAMBOREE	lure	n/a	n/a	n/a	1
135.798	0.799990543	MANE	lure	n/a	n/a	n/a	1
136.598	0.366662618	ATOM	lure	n/a	n/a	n/a	1
136.965	0.466658852	DOGMA	lure	n/a	n/a	n/a	1
137.431	0.666658972	DETACHMENT	lure	n/a	n/a	n/a	1
138.098	0.699988315	COFFEE	lure	n/a	n/a	n/a	1
138.798	0.349995251	BLURB	lure	n/a	n/a	n/a	1
139.148	0.400039432	LEOPARD	lure	n/a	n/a	n/a	1
139.548	0.53333783	STRAIT	lure	n/a	n/a	n/a	1
140.081	2.016584631	MAST	long	n/a	n/a	n/a	1
142.098	0.583322072	UNION	lure	n/a	n/a	n/a	1
142.681	0.599989457	HAREM	lure	n/a	n/a	n/a	1
143.281	0.333329973	OVERLORD	lure	n/a	n/a	n/a	1
143.614	0.449993955	TENSION	lure	n/a	n/a	n/a	1
144.064	0.466660505	SHOOTER	lure	n/a	n/a	n/a	1
144.531	0.733321595	ITINERARY	lure	n/a	n/a	n/a	1
145.264	0.583326691	STEPMOTHER	lure	n/a	n/a	n/a	1
145.848	0.450053622	EMBLEM	lure	n/a	n/a	n/a	1
146.298	0.499990773	FILLER	lure	n/a	n/a	n/a	1
146.798	0.366660488	ANNEX	lure	n/a	n/a	n/a	1
147.164	0.699935383	REGENCY	lure	n/a	n/a	n/a	1
147.864	0.733319472	CANON	lure	n/a	n/a	n/a	1
148.598	0.616659961	LIGHT	short	n/a	n/a	n/a	1
149.214	0.400049605	NAUGHT	lure	n/a	n/a	n/a	1
149.614	0.683322643	INCISION	lure	n/a	n/a	n/a	1
150.298	0.699937917	PENMANSHIP	lure	n/a	n/a	n/a	1
150.998	0.733317886	SURVIVOR	lure	n/a	n/a	n/a	1
151.731	0.516664123	WEREWOLF	lure	n/a	n/a	n/a	1
152.248	0.699982726	COLONEL	lure	n/a	n/a	n/a	1
152.948	0.683329743	AUTHORITY	lure	n/a	n/a	n/a	1
153.631	0.516711406	MEDIA	lure	n/a	n/a	n/a	1
154.148	0.399942301	AUCTIONEER	lure	n/a	n/a	n/a	1
154.548	0.336461048	RHYTHM	lure	n/a	n/a	n/a	1
154.884	0.583571144	NUNNERY	lure	n/a	n/a	n/a	1
155.468	0.383561718	PUZZLER	lure	n/a	n/a	n/a	1
155.851	0.463339777	FLASHLIGHT	lure	n/a	n/a	n/a	1
156.315	0.733032758	MYSTICISM	lure	n/a	n/a	n/a	1
157.048	2.016638886	CLUB	long	n/a	n/a	n/a	1
159.064	0.518666602	PALATE	lure	n/a	n/a	n/a	1
159.583	0.64798337	BEEFSTEAK	lure	n/a	n/a	n/a	1
160.231	0.600044909	STUMPER	lure	n/a	n/a	n/a	1
160.831	0.649995356	EMBANKMENT	lure	n/a	n/a	n/a	1
161.481	0.366599271	CONVERTER	lure	n/a	n/a	n/a	1
161.848	0.483326806	ONSLAUGHT	lure	n/a	n/a	n/a	1
162.331	0.516663864	TRIBUNE	lure	n/a	n/a	n/a	1
162.848	0.603294901	PEPTIDE	lure	n/a	n/a	n/a	1
163.451	0.517568264	PLAYPEN	lure	n/a	n/a	n/a	1
163.968	0.595779977	ETIQUETTE	lure	n/a	n/a	n/a	1
164.564	0.366719315	BUTTONHOOK	lure	n/a	n/a	n/a	1
164.931	0.616600893	FOIL	short	n/a	n/a	n/a	1
165.547	0.616694785	KNUCKLE	lure	n/a	n/a	n/a	1
166.164	0.76661536	BUREAU	lure	n/a	n/a	n/a	1
166.931	0.366662039	CRIME	lure	n/a	n/a	n/a	1
167.297	0.599994731	MAGNITUDE	lure	n/a	n/a	n/a	1
167.897	0.366660846	ZOOLOGIST	lure	n/a	n/a	n/a	1
168.264	0.666656679	COP	lure	n/a	n/a	n/a	1
168.931	0.533326066	EVICTION	lure	n/a	n/a	n/a	1
169.464	0.583323756	CHEESE	lure	n/a	n/a	n/a	1
170.047	0.666710925	MARINER	lure	n/a	n/a	n/a	1
170.714	0.550283588	PERSONA	lure	n/a	n/a	n/a	1
171.264	0.349652176	GUNFIGHTER	lure	n/a	n/a	n/a	1
171.614	0.583322044	GIST	lure	n/a	n/a	n/a	1
172.197	0.533326379	SINGER	lure	n/a	n/a	n/a	1
172.731	0.416721793	LOLLY	lure	n/a	n/a	n/a	1
173.147	0.61659259	TIRE	short	n/a	n/a	n/a	1
173.764	0.566664772	PLATOON	lure	n/a	n/a	n/a	1
174.331	0.38332877	POODLE	lure	n/a	n/a	n/a	1
174.714	0.550045938	TURTLEDOVE	lure	n/a	n/a	n/a	1
175.264	0.683326035	ORCHARD	lure	n/a	n/a	n/a	1
175.947	0.583325691	EXCISE	lure	n/a	n/a	n/a	1
176.531	0.749934278	OVERSIGHT	lure	n/a	n/a	n/a	1
177.281	0.583320333	GENEALOGY	lure	n/a	n/a	n/a	1
177.864	0.750037953	TOUPEE	lure	n/a	n/a	n/a	1
178.614	0.566672203	STUPOR	lure	n/a	n/a	n/a	1
179.181	0.599991718	LESSON	lure	n/a	n/a	n/a	1
179.781	0.366604295	CENTIMETER	lure	n/a	n/a	n/a	1
180.147	0.46665706	TRUCKER	lure	n/a	n/a	n/a	1
180.614	0.616654234	CENTERLINE	lure	n/a	n/a	n/a	1
181.231	1.016713067	PEAR	fruit	575	2	2	1
182.247	0.549934676	IMMENSITY	lure	n/a	n/a	n/a	1
182.797	0.683326241	SANDPIPER	lure	n/a	n/a	n/a	1
183.481	0.583322643	BISQUE	lure	n/a	n/a	n/a	1
184.064	0.683326323	RUT	lure	n/a	n/a	n/a	1
184.747	0.466660947	SUNDOWN	lure	n/a	n/a	n/a	1
185.214	0.399990986	BUCKSKIN	lure	n/a	n/a	n/a	1
185.614	0.583322314	GUNPLAY	lure	n/a	n/a	n/a	1
186.197	0.736696171	INSTIGATOR	lure	n/a	n/a	n/a	1
186.934	0.497563344	CATALOG	lure	n/a	n/a	n/a	1
187.431	0.615774169	CATACOMB	lure	n/a	n/a	n/a	1
188.047	0.416605815	EARACHE	lure	n/a	n/a	n/a	1
188.464	0.466658298	JACKAL	lure	n/a	n/a	n/a	1
188.93	0.800056513	CULTIST	lure	n/a	n/a	n/a	1
189.731	2.016572052	MACHINE	long	n/a	n/a	n/a	1
191.747	0.750048524	RAINFALL	lure	n/a	n/a	n/a	1
192.497	0.616598408	OBSCENITY	lure	n/a	n/a	n/a	1
193.114	0.616660858	RESOURCE	lure	n/a	n/a	n/a	1
193.73	0.666657804	RINGLEADER	lure	n/a	n/a	n/a	1
194.397	0.717072919	GETAWAY	lure	n/a	n/a	n/a	1
195.114	0.703571892	SUBSTATION	lure	n/a	n/a	n/a	1
195.818	0.362714352	THIEF	lure	n/a	n/a	n/a	1
196.18	0.449941381	SUBSIDENCE	lure	n/a	n/a	n/a	1
196.63	0.683383558	DESERTION	lure	n/a	n/a	n/a	1
197.314	0.766594527	BOURBON	lure	n/a	n/a	n/a	1
198.08	2.016638969	ARROW	long	n/a	n/a	n/a	1
200.097	0.316707241	FURY	lure	n/a	n/a	n/a	1
200.414	0.599948099	SCIENTIST	lure	n/a	n/a	n/a	1
201.014	0.583370894	CONFUSION	lure	n/a	n/a	n/a	1
201.597	0.499946453	STUDIO	lure	n/a	n/a	n/a	1
202.097	0.333327169	CHAMPAGNE	lure	n/a	n/a	n/a	1
202.43	0.333375992	PATRONAGE	lure	n/a	n/a	n/a	1
202.764	0.4833106	GOTHICISM	lure	n/a	n/a	n/a	1
203.247	0.666624777	FLUTE	lure	n/a	n/a	n/a	1
203.914	0.516662652	ANTIDOTE	lure	n/a	n/a	n/a	1
204.43	0.499990841	NONDRIVER	lure	n/a	n/a	n/a	1
204.93	0.416660321	COMPULSION	lure	n/a	n/a	n/a	1
205.347	0.566717273	EMINENCE	lure	n/a	n/a	n/a	1
205.914	0.399938332	INCEPTION	lure	n/a	n/a	n/a	1
206.314	0.616659249	RAMP	short	n/a	n/a	n/a	1
206.93	0.38338143	INVENTOR	lure	n/a	n/a	n/a	1
207.314	0.64998366	LANDFALL	lure	n/a	n/a	n/a	1
207.964	0.316614885	RAVIOLI	lure	n/a	n/a	n/a	1
208.28	0.699986711	BALLPLAYER	lure	n/a	n/a	n/a	1
208.98	0.416659029	GREASER	lure	n/a	n/a	n/a	1
209.397	0.716661296	HEADER	lure	n/a	n/a	n/a	1
210.114	0.549991867	SACCHARIN	lure	n/a	n/a	n/a	1
210.664	0.483324521	BUILDUP	lure	n/a	n/a	n/a	1
211.147	0.549993789	TRIBESMEN	lure	n/a	n/a	n/a	1
211.697	0.449991995	CASTLE	lure	n/a	n/a	n/a	1
212.147	0.716658039	STOOL	lure	n/a	n/a	n/a	1
212.863	0.549993384	PUDDING	lure	n/a	n/a	n/a	1
213.413	0.585656237	ORDINANCE	lure	n/a	n/a	n/a	1
213.999	0.547660389	ENAMEL	lure	n/a	n/a	n/a	1
214.547	0.616659504	CURB	short	n/a	n/a	n/a	1
215.163	0.383326112	DUSTPAN	lure	n/a	n/a	n/a	1
215.547	0.649993757	PLAYOFF	lure	n/a	n/a	n/a	1
216.197	0.549986018	SUBMISSION	lure	n/a	n/a	n/a	1
216.747	0.483329811	GUMSHOE	lure	n/a	n/a	n/a	1
217.23	0.766660266	FARMER	lure	n/a	n/a	n/a	1
217.997	0.599990493	CONSULTANT	lure	n/a	n/a	n/a	1
218.597	0.349991791	HOSPITAL	lure	n/a	n/a	n/a	1
218.947	0.349991913	IGLOO	lure	n/a	n/a	n/a	1
219.297	0.483327828	REPERTOIRE	lure	n/a	n/a	n/a	1
219.78	0.733324936	PULPIT	lure	n/a	n/a	n/a	1
220.513	0.466661671	CERVIX	lure	n/a	n/a	n/a	1
220.98	0.43332268	GERM	lure	n/a	n/a	n/a	1
221.413	0.599998637	DEDUCTION	lure	n/a	n/a	n/a	1
222.013	0.533317692	PETUNIA	lure	n/a	n/a	n/a	1
222.547	0.533328225	SUSPECT	lure	n/a	n/a	n/a	1
223.08	0.450042064	WIDTH	lure	n/a	n/a	n/a	1
223.53	0.649945097	ANTENNA	lure	n/a	n/a	n/a	1
224.18	0.733322112	MILLIMETER	lure	n/a	n/a	n/a	1
224.913	0.716656831	ANTLER	lure	n/a	n/a	n/a	1
225.63	0.749990063	ESPRESSO	lure	n/a	n/a	n/a	1
226.38	0.499992621	BOOKSHOP	lure	n/a	n/a	n/a	1
226.88	n/a	PHANTOM	lure	n/a	n/a	n/a	1
238.013	0.549997188	HARDSHIP	lure	n/a	n/a	n/a	1
238.563	0.449991032	EARL	lure	n/a	n/a	n/a	1
239.013	0.44999003	ELEGANCE	lure	n/a	n/a	n/a	1
239.463	0.666661521	GEOGRAPHER	lure	n/a	n/a	n/a	1
240.13	0.533327407	TECH	lure	n/a	n/a	n/a	1
240.663	0.699989149	HEXAGON	lure	n/a	n/a	n/a	1
241.363	0.399995716	CHECKER	lure	n/a	n/a	n/a	1
241.763	2.01663733	CLUB	long	n/a	n/a	n/a	1
243.78	0.316660705	MOSQUE	lure	n/a	n/a	n/a	1
244.096	0.749989323	MIGRAINE	lure	n/a	n/a	n/a	1
244.846	0.683326093	BUMMER	lure	n/a	n/a	n/a	1
245.53	0.616651552	SKELETON	lure	n/a	n/a	n/a	1
246.146	0.350001855	MISSILE	lure	n/a	n/a	n/a	1
246.496	0.499991414	RATIO	lure	n/a	n/a	n/a	1
246.996	0.466659596	DETENTION	lure	n/a	n/a	n/a	1
247.463	0.383856435	RESISTANCE	lure	n/a	n/a	n/a	1
247.847	0.499466222	COUNSELLOR	lure	n/a	n/a	n/a	1
248.346	0.416661249	DEBTOR	lure	n/a	n/a	n/a	1
248.763	0.53332412	COMPONENT	lure	n/a	n/a	n/a	1
249.296	0.599989962	INACTION	lure	n/a	n/a	n/a	1
249.896	2.01664136	CONE	long	n/a	n/a	n/a	1
251.913	0.316658867	HORN	lure	n/a	n/a	n/a	1
252.23	0.749992265	OUTRAGE	lure	n/a	n/a	n/a	1
252.98	0.499992452	TURNAROUND	lure	n/a	n/a	n/a	1
253.48	0.633324434	CEREAL	lure	n/a	n/a	n/a	1
254.113	0.38332693	FACILITY	lure	n/a	n/a	n/a	1
254.496	0.749993837	BLOTCH	lure	n/a	n/a	n/a	1
255.246	0.333321927	COHORT	lure	n/a	n/a	n/a	1
255.58	0.599995663	FARMHAND	lure	n/a	n/a	n/a	1
256.18	0.649988346	INCOME	lure	n/a	n/a	n/a	1
256.83	0.483330493	PLATFORM	lure	n/a	n/a	n/a	1
257.313	0.716656031	BIGHEAD	lure	n/a	n/a	n/a	1
258.03	0.349994917	EXULTATION	lure	n/a	n/a	n/a	1
258.38	0.616659435	DRILL	short	n/a	n/a	n/a	1
258.996	0.499989926	EQUATOR	lure	n/a	n/a	n/a	1
259.496	0.51665506	LOGGER	lure	n/a	n/a	n/a	1
260.013	0.599991539	VENTRICLE	lure	n/a	n/a	n/a	1
260.613	0.566664942	OXEN	lure	n/a	n/a	n/a	1
261.179	0.333327887	CORNFLAKE	lure	n/a	n/a	n/a	1
261.513	0.487549331	ELECTRON	lure	n/a	n/a	n/a	1
262	0.345771304	TALISMAN	lure	n/a	n/a	n/a	1
262.346	0.766658409	JASPER	lure	n/a	n/a	n/a	1
263.113	0.416657294	NEUTRALITY	lure	n/a	n/a	n/a	1
263.529	0.666661085	SPLASHDOWN	lure	n/a	n/a	n/a	1
264.196	0.316659141	ANIMATION	lure	n/a	n/a	n/a	1
264.513	0.699988992	SILICA	lure	n/a	n/a	n/a	1
265.213	0.499991403	CLERK	lure	n/a	n/a	n/a	1
265.713	0.316665723	RANGER	lure	n/a	n/a	n/a	1
266.029	0.383327967	MODULATION	lure	n/a	n/a	n/a	1
266.413	1.049987259	LEMON	fruit	689	2	2	1
267.463	0.633323703	BACKGROUND	lure	n/a	n/a	n/a	1
268.096	0.649990817	CABINET	lure	n/a	n/a	n/a	1
268.746	0.433326832	DOORMEN	lure	n/a	n/a	n/a	1
269.179	0.499990641	ORIOLE	lure	n/a	n/a	n/a	1
269.679	0.399995417	AVOCATION	lure	n/a	n/a	n/a	1
270.079	0.683323671	RESOLUTION	lure	n/a	n/a	n/a	1
270.763	0.53332579	GEn/aE	lure	n/a	n/a	n/a	1
271.296	0.466659962	BIOGRAPHY	lure	n/a	n/a	n/a	1
271.763	0.516659968	HEEL	lure	n/a	n/a	n/a	1
272.279	0.41665885	TRAJECTORY	lure	n/a	n/a	n/a	1
272.696	0.599989216	PICNIC	lure	n/a	n/a	n/a	1
273.296	0.700052848	THERAPIST	lure	n/a	n/a	n/a	1
273.996	0.416604424	FAIRYTALE	lure	n/a	n/a	n/a	1
274.413	2.016640075	ARROW	long	n/a	n/a	n/a	1
276.429	0.599990507	GOWN	lure	n/a	n/a	n/a	1
277.029	0.68337818	HAWKER	lure	n/a	n/a	n/a	1
277.713	0.716601884	DISCLOSURE	lure	n/a	n/a	n/a	1
278.429	0.500051495	CONTRACTOR	lure	n/a	n/a	n/a	1
278.929	0.566659406	ROADSTER	lure	n/a	n/a	n/a	1
279.496	0.483325896	FERRYMAN	lure	n/a	n/a	n/a	1
279.979	0.666597847	GAZER	lure	n/a	n/a	n/a	1
280.646	0.416715898	COMMANDO	lure	n/a	n/a	n/a	1
281.063	0.466659789	GENE	lure	n/a	n/a	n/a	1
281.529	0.583267767	HAILSTORM	lure	n/a	n/a	n/a	1
282.113	0.350057382	DISPARITY	lure	n/a	n/a	n/a	1
282.463	1.016592778	BERRY	fruit	735	2	2	1
283.479	0.350053239	AIRSPEED	lure	n/a	n/a	n/a	1
283.829	0.700011247	CONVERSION	lure	n/a	n/a	n/a	1
284.529	0.666579186	MINK	lure	n/a	n/a	n/a	1
285.196	0.566658989	SOOTHSAYER	lure	n/a	n/a	n/a	1
285.762	0.483324746	HELPER	lure	n/a	n/a	n/a	1
286.246	0.401427069	INKWELL	lure	n/a	n/a	n/a	1
286.647	0.448560854	PLAGIARIST	lure	n/a	n/a	n/a	1
287.096	0.48332527	SNEAKER	lure	n/a	n/a	n/a	1
287.579	0.583328719	PREMIERE	lure	n/a	n/a	n/a	1
288.162	0.449990393	TRAPPER	lure	n/a	n/a	n/a	1
288.612	0.649990715	MOTORCADE	lure	n/a	n/a	n/a	1
289.262	0.734698911	LAGOON	lure	n/a	n/a	n/a	1
289.997	0.336564252	COMMUNITY	lure	n/a	n/a	n/a	1
290.334	0.662343612	TIRE	short	n/a	n/a	n/a	1
290.996	0.599699583	PHYSIQUE	lure	n/a	n/a	n/a	1
291.596	0.333323326	TEAHOUSE	lure	n/a	n/a	n/a	1
291.929	0.39999386	FACSIMILE	lure	n/a	n/a	n/a	1
292.329	0.683326519	ZONE	lure	n/a	n/a	n/a	1
293.012	0.649989934	NONSMOKER	lure	n/a	n/a	n/a	1
293.662	0.349994595	BIZ	lure	n/a	n/a	n/a	1
294.012	0.516661554	PRECURSOR	lure	n/a	n/a	n/a	1
294.529	0.4499941	FIESTA	lure	n/a	n/a	n/a	1
294.979	0.69998726	QUARRY	lure	n/a	n/a	n/a	1
295.679	0.383330257	CARD	lure	n/a	n/a	n/a	1
296.062	0.63332345	PROTOTYPE	lure	n/a	n/a	n/a	1
296.696	0.449992518	PRAGMATISM	lure	n/a	n/a	n/a	1
297.146	0.402844995	SURFBOARD	lure	n/a	n/a	n/a	1
297.548	0.465559942	COCKTAIL	lure	n/a	n/a	n/a	1
298.014	0.567570761	DISSENT	lure	n/a	n/a	n/a	1
298.582	2.01459844	MONSOON	long	n/a	n/a	n/a	1
300.596	0.649371557	MEADOW	lure	n/a	n/a	n/a	1
301.246	0.333326541	ANNOTATION	lure	n/a	n/a	n/a	1
301.579	0.383325481	CASINO	lure	n/a	n/a	n/a	1
301.962	0.666658357	DAUGHTER	lure	n/a	n/a	n/a	1
302.629	0.666661221	EXPOSITION	lure	n/a	n/a	n/a	1
303.296	0.449995333	NEWSREEL	lure	n/a	n/a	n/a	1
303.746	0.600048771	REDSKIN	lure	n/a	n/a	n/a	1
304.346	0.349936067	DOMINO	lure	n/a	n/a	n/a	1
304.696	0.48336932	LORDSHIP	lure	n/a	n/a	n/a	1
305.179	0.433338003	BUGABOO	lure	n/a	n/a	n/a	1
305.612	0.433272927	OUTLOOK	lure	n/a	n/a	n/a	1
306.046	0.72037078	HISTAMINE	lure	n/a	n/a	n/a	1
306.766	0.483561098	SEAHORSE	lure	n/a	n/a	n/a	1
307.249	0.646042797	CORK	short	n/a	n/a	n/a	1
307.895	0.766653429	DAIRY	lure	n/a	n/a	n/a	1
308.662	0.333327331	TRESPASSER	lure	n/a	n/a	n/a	1
308.995	0.616661046	POD	lure	n/a	n/a	n/a	1
309.612	0.716699029	TORMENTOR	lure	n/a	n/a	n/a	1
310.329	0.733325886	In/aOAD	lure	n/a	n/a	n/a	1
311.062	0.633281208	TESTER	lure	n/a	n/a	n/a	1
311.695	0.533370036	SWIMSUIT	lure	n/a	n/a	n/a	1
312.229	0.733321139	PATHOLOGY	lure	n/a	n/a	n/a	1
312.962	0.666665534	CRANNY	lure	n/a	n/a	n/a	1
313.629	0.783267563	MOM	lure	n/a	n/a	n/a	1
314.412	0.450203955	SIEGE	lure	n/a	n/a	n/a	1
314.862	0.533114904	ALPHABET	lure	n/a	n/a	n/a	1
315.395	2.01664253	BRUSH	long	n/a	n/a	n/a	1
317.412	0.353576208	INSTANCE	lure	n/a	n/a	n/a	1
317.766	0.350559951	SATIRE	lure	n/a	n/a	n/a	1
318.116	0.729223367	ENTREATY	lure	n/a	n/a	n/a	1
318.845	0.716603881	KNITWEAR	lure	n/a	n/a	n/a	1
319.562	0.416711342	FRACTURE	lure	n/a	n/a	n/a	1
319.979	0.350000489	SEAMANSHIP	lure	n/a	n/a	n/a	1
320.329	0.74993809	SALESMAN	lure	n/a	n/a	n/a	1
321.079	0.735429032	GRIFFIN	lure	n/a	n/a	n/a	1
321.814	0.414610984	LATCHKEY	lure	n/a	n/a	n/a	1
322.229	0.333331715	HASTE	lure	n/a	n/a	n/a	1
322.562	0.716648633	SUn/aOOF	lure	n/a	n/a	n/a	1
323.279	0.399942612	COMMENTARY	lure	n/a	n/a	n/a	1
323.679	1.016655448	ORANGE	fruit	631	2	2	1
324.695	0.46666129	CABBY	lure	n/a	n/a	n/a	1
325.162	0.566657354	LYRE	lure	n/a	n/a	n/a	1
325.729	0.450046641	METHANE	lure	n/a	n/a	n/a	1
326.179	0.533270186	SPUD	lure	n/a	n/a	n/a	1
326.712	0.483327678	STATEROOM	lure	n/a	n/a	n/a	1
327.195	0.466719624	PATHFINDER	lure	n/a	n/a	n/a	1
327.662	0.449932822	FAIRYLAND	lure	n/a	n/a	n/a	1
328.112	0.366662515	FLATFOOT	lure	n/a	n/a	n/a	1
328.479	0.699992468	MARROW	lure	n/a	n/a	n/a	1
329.179	0.549986208	NOVELTY	lure	n/a	n/a	n/a	1
329.729	0.416719572	ACCIDENT	lure	n/a	n/a	n/a	1
330.145	0.58326511	HEADWIND	lure	n/a	n/a	n/a	1
330.728	0.516665362	WILDLIFE	lure	n/a	n/a	n/a	1
331.245	0.416722281	PATROLMAN	lure	n/a	n/a	n/a	1
331.662	0.583261894	UPSURGE	lure	n/a	n/a	n/a	1
332.245	0.616659645	LIGHT	short	n/a	n/a	n/a	1
332.862	0.583325305	BROCHURE	lure	n/a	n/a	n/a	1
333.445	0.716656618	INFERENCE	lure	n/a	n/a	n/a	1
334.162	0.616657432	HANDYMEN	lure	n/a	n/a	n/a	1
334.778	0.633322491	AIRMEN	lure	n/a	n/a	n/a	1
335.412	0.59998895	GREYBEARD	lure	n/a	n/a	n/a	1
336.012	0.733323792	KILOGRAM	lure	n/a	n/a	n/a	1
336.745	0.483331193	NOZZLE	lure	n/a	n/a	n/a	1
337.228	0.716654941	ANTHEM	lure	n/a	n/a	n/a	1
337.945	0.533323733	EXPANSION	lure	n/a	n/a	n/a	1
338.478	0.366662286	RUGBY	lure	n/a	n/a	n/a	1
338.845	0.599996058	SKY	lure	n/a	n/a	n/a	1
339.445	0.737587519	DRAWBACK	lure	n/a	n/a	n/a	1
340.183	0.762391479	COLLECTION	lure	n/a	n/a	n/a	1
340.945	0.616657992	RAMP	short	n/a	n/a	n/a	1
341.562	0.766654556	WHISPERER	lure	n/a	n/a	n/a	1
342.328	0.733323961	RAZOR	lure	n/a	n/a	n/a	1
343.062	0.68332436	NOON	lure	n/a	n/a	n/a	1
343.745	0.79998498	PROMOTION	lure	n/a	n/a	n/a	1
344.545	0.716660816	PATTERN	lure	n/a	n/a	n/a	1
345.262	0.433383915	TITAN	lure	n/a	n/a	n/a	1
345.695	0.649994872	HERBIVORE	lure	n/a	n/a	n/a	1
346.345	0.499925371	BOMBER	lure	n/a	n/a	n/a	1
346.845	0.766661603	ICECAP	lure	n/a	n/a	n/a	1
347.612	0.333326762	HOUSEMAID	lure	n/a	n/a	n/a	1
347.945	0.599994736	INTERLINK	lure	n/a	n/a	n/a	1
348.545	0.333384842	HUMIDITY	lure	n/a	n/a	n/a	1
348.878	2.016580348	PUTTY	long	n/a	n/a	n/a	1
350.895	0.483324793	PAGEANTRY	lure	n/a	n/a	n/a	1
351.378	0.699989313	FABRIC	lure	n/a	n/a	n/a	1
352.078	0.350052751	POTHOLE	lure	n/a	n/a	n/a	1
352.428	0.766603048	MULE	lure	n/a	n/a	n/a	1
353.195	0.399991783	HOLDOVER	lure	n/a	n/a	n/a	1
353.595	0.704735793	TROTTER	lure	n/a	n/a	n/a	1
354.3	0.345250938	TEENAGER	lure	n/a	n/a	n/a	1
354.645	0.400049818	TABLEWARE	lure	n/a	n/a	n/a	1
355.045	0.466606501	HAT	lure	n/a	n/a	n/a	1
355.511	0.483326009	MANNER	lure	n/a	n/a	n/a	1
355.995	0.699990698	PLAQUE	lure	n/a	n/a	n/a	1
356.695	0.483322092	LID	lure	n/a	n/a	n/a	1
357.178	0.616661793	CURB	short	n/a	n/a	n/a	1
357.795	0.533321833	COUCH	lure	n/a	n/a	n/a	1
358.328	0.76665816	MOTH	lure	n/a	n/a	n/a	1
359.095	0.399994575	TREADMILL	lure	n/a	n/a	n/a	1
359.495	0.483324939	SHORTFALL	lure	n/a	n/a	n/a	1
359.978	0.666658266	UNDERWEAR	lure	n/a	n/a	n/a	1
360.645	0.533325734	CRITERION	lure	n/a	n/a	n/a	1
361.178	0.516658643	CUTTER	lure	n/a	n/a	n/a	1
361.695	0.449992992	ARITHMETIC	lure	n/a	n/a	n/a	1
362.145	0.766657286	POPULATION	lure	n/a	n/a	n/a	1
362.911	0.683318554	JOVIALITY	lure	n/a	n/a	n/a	1
363.595	0.56666318	SMASHER	lure	n/a	n/a	n/a	1
364.161	0.716658535	PIPER	lure	n/a	n/a	n/a	1
364.878	0.649988038	SHEEP	lure	n/a	n/a	n/a	1
365.528	0.383328861	IGNORANCE	lure	n/a	n/a	n/a	1
365.911	2.016640852	MAST	long	n/a	n/a	n/a	1
367.928	0.416659436	COMPETENCE	lure	n/a	n/a	n/a	1
368.345	0.416721923	TRANSITION	lure	n/a	n/a	n/a	1
368.761	0.783260925	CORVETTE	lure	n/a	n/a	n/a	1
369.545	0.416728439	DEADLINE	lure	n/a	n/a	n/a	1
369.961	0.449924995	SUNFLOWER	lure	n/a	n/a	n/a	1
370.411	0.466720463	PERIMETER	lure	n/a	n/a	n/a	1
370.878	0.353516703	SANITY	lure	n/a	n/a	n/a	1
371.232	0.413076398	PATERNITY	lure	n/a	n/a	n/a	1
371.645	0.583383355	STRAGGLER	lure	n/a	n/a	n/a	1
372.228	0.649938983	REINDEER	lure	n/a	n/a	n/a	1
372.878	0.516652409	RENOWN	lure	n/a	n/a	n/a	1
373.395	0.533330399	DOORHANDLE	lure	n/a	n/a	n/a	1
373.928	0.783321268	FIREARM	lure	n/a	n/a	n/a	1
374.711	2.016640778	RAVINE	long	n/a	n/a	n/a	1
376.728	0.616658897	SLEW	lure	n/a	n/a	n/a	1
377.345	0.33338398	GROWTH	lure	n/a	n/a	n/a	1
377.678	0.649987421	EXUBERANCE	lure	n/a	n/a	n/a	1
378.328	0.733268211	PERIODICAL	lure	n/a	n/a	n/a	1
379.061	0.683327138	HANDOUT	lure	n/a	n/a	n/a	1
379.744	0.333327531	CESSATION	lure	n/a	n/a	n/a	1
380.078	0.366660303	COLLAGEN	lure	n/a	n/a	n/a	1
380.444	0.68332441	DAYLIGHT	lure	n/a	n/a	n/a	1
381.128	0.516723969	HORIZON	lure	n/a	n/a	n/a	1
381.645	0.549924013	NEGATION	lure	n/a	n/a	n/a	1
382.194	0.349999588	MONSTER	lure	n/a	n/a	n/a	1
382.544	0.616656896	DEPOT	short	n/a	n/a	n/a	1
383.161	0.366661926	BRISKET	lure	n/a	n/a	n/a	1
383.528	0.449993376	BATON	lure	n/a	n/a	n/a	1
383.978	0.749991387	HUNCHBACK	lure	n/a	n/a	n/a	1
384.728	0.551821244	COLLISION	lure	n/a	n/a	n/a	1
385.28	0.348164967	FICTION	lure	n/a	n/a	n/a	1
385.628	0.666658066	SURREALISM	lure	n/a	n/a	n/a	1
386.294	0.749986808	BARNACLE	lure	n/a	n/a	n/a	1
387.044	0.433328772	RESEARCHER	lure	n/a	n/a	n/a	1
387.478	0.716719277	HOUSEWORK	lure	n/a	n/a	n/a	1
388.194	0.566597403	GODSPEED	lure	n/a	n/a	n/a	1
388.761	0.416715369	PECAN	lure	n/a	n/a	n/a	1
389.178	0.749926797	AMP	lure	n/a	n/a	n/a	1
389.928	0.583332264	BREADCRUMB	lure	n/a	n/a	n/a	1
390.511	0.699992081	BASSOON	lure	n/a	n/a	n/a	1
391.211	2.016637424	MACHINE	long	n/a	n/a	n/a	1
393.228	0.599990417	DEFLECTION	lure	n/a	n/a	n/a	1
393.828	0.449991925	ARROWHEAD	lure	n/a	n/a	n/a	1
394.278	0.583321944	SWEEPER	lure	n/a	n/a	n/a	1
394.861	0.533329201	MISCHIEF	lure	n/a	n/a	n/a	1
395.394	0.666658198	ABSOLUTION	lure	n/a	n/a	n/a	1
396.061	0.583324059	MADMEN	lure	n/a	n/a	n/a	1
396.644	0.749991916	HYPHEN	lure	n/a	n/a	n/a	1
397.394	0.349992318	CAPSULE	lure	n/a	n/a	n/a	1
397.744	0.433327549	OVERSEER	lure	n/a	n/a	n/a	1
398.178	0.316662073	STRINGENCY	lure	n/a	n/a	n/a	1
398.494	0.499990645	VENUE	lure	n/a	n/a	n/a	1
398.994	0.633326718	PREVALENCE	lure	n/a	n/a	n/a	1
399.628	0.616662301	DIRT	short	n/a	n/a	n/a	1
400.244	0.383322077	DRIFTER	lure	n/a	n/a	n/a	1
400.628	0.416664341	PULSAR	lure	n/a	n/a	n/a	1
401.044	0.666652579	CRESCENT	lure	n/a	n/a	n/a	1
401.711	0.633331916	DEFENDER	lure	n/a	n/a	n/a	1
402.344	0.666654611	TELECAST	lure	n/a	n/a	n/a	1
403.011	0.633327367	WISDOM	lure	n/a	n/a	n/a	1
403.644	0.533319924	ALLIANCE	lure	n/a	n/a	n/a	1
404.177	0.699993504	SENSATION	lure	n/a	n/a	n/a	1
404.877	0.649989582	PACT	lure	n/a	n/a	n/a	1
405.527	0.566659493	DRAMATIST	lure	n/a	n/a	n/a	1
406.094	0.64999258	HORSEBACK	lure	n/a	n/a	n/a	1
406.744	0.616653461	FLAGPOLE	lure	n/a	n/a	n/a	1
407.361	0.733328055	COUNCILMAN	lure	n/a	n/a	n/a	1
408.094	1.018673681	BANANA	fruit	615	2	2	1
409.113	0.414723309	PLANTATION	lure	n/a	n/a	n/a	1
409.527	0.683242065	WOODCOCK	lure	n/a	n/a	n/a	1
410.211	0.58331932	SECRETION	lure	n/a	n/a	n/a	1
410.794	0.633454614	BODY	lure	n/a	n/a	n/a	1
411.427	0.483196929	PODIUM	lure	n/a	n/a	n/a	1
411.911	0.666655563	DRIFTWOOD	lure	n/a	n/a	n/a	1
412.577	0.349999236	DISCRETION	lure	n/a	n/a	n/a	1
412.927	0.533322719	CULTURE	lure	n/a	n/a	n/a	1
413.461	0.583326046	TOURNAMENT	lure	n/a	n/a	n/a	1
414.044	0.633382772	TOTALITY	lure	n/a	n/a	n/a	1
414.677	0.366664621	EXCELLENCY	lure	n/a	n/a	n/a	1
415.044	0.699932784	MART	lure	n/a	n/a	n/a	1
415.744	0.366706169	BOOKIE	lure	n/a	n/a	n/a	1
416.111	1.016891906	ELDERBERRY	fruit	615	2	2	1
417.128	0.633036516	VANE	lure	n/a	n/a	n/a	1
417.761	0.450052724	WHARF	lure	n/a	n/a	n/a	1
418.211	0.583266246	IMPUTATION	lure	n/a	n/a	n/a	1
418.794	0.366661717	SAVANNAH	lure	n/a	n/a	n/a	1
419.161	0.683382759	PASSAGE	lure	n/a	n/a	n/a	1
419.844	0.699933305	PUPPETEER	lure	n/a	n/a	n/a	1
420.544	0.649992474	ABSTINENCE	lure	n/a	n/a	n/a	1
421.194	0.366660092	CATCHER	lure	n/a	n/a	n/a	1
421.561	0.649991908	LINEUP	lure	n/a	n/a	n/a	1
422.211	0.749982589	DEVOTION	lure	n/a	n/a	n/a	1
422.961	0.749993091	REVOLVER	lure	n/a	n/a	n/a	1
423.711	0.633326978	REMAKE	lure	n/a	n/a	n/a	1
424.344	0.616657282	PYRAMID	lure	n/a	n/a	n/a	1
424.961	0.616657768	ASHES	short	n/a	n/a	n/a	1
425.577	0.449993531	AIRFORCE	lure	n/a	n/a	n/a	1
426.027	0.333328474	NERVE	lure	n/a	n/a	n/a	1
426.36	0.750057204	FOOTSIE	lure	n/a	n/a	n/a	1
427.111	0.416595492	UNDERLAY	lure	n/a	n/a	n/a	1
427.527	0.483323532	EROSION	lure	n/a	n/a	n/a	1
428.01	0.566708261	TURNER	lure	n/a	n/a	n/a	1
428.577	0.749939374	SEMINARY	lure	n/a	n/a	n/a	1
429.327	0.483387553	ONSET	lure	n/a	n/a	n/a	1
429.81	0.516593912	INVENTORY	lure	n/a	n/a	n/a	1
430.327	0.500055767	CRANIUM	lure	n/a	n/a	n/a	1
430.827	0.583324583	REVELRY	lure	n/a	n/a	n/a	1
431.41	0.466600122	DISPENSARY	lure	n/a	n/a	n/a	1
431.877	0.516665319	BARTENDER	lure	n/a	n/a	n/a	1
432.394	0.716710603	EXPO	lure	n/a	n/a	n/a	1
433.11	0.61660343	FOIL	short	n/a	n/a	n/a	1
433.727	0.333326683	INDICATION	lure	n/a	n/a	n/a	1
434.06	0.41672235	EYESIGHT	lure	n/a	n/a	n/a	1
434.477	0.683263476	LEGUME	lure	n/a	n/a	n/a	1
435.16	0.549989551	CALYPSO	lure	n/a	n/a	n/a	1
435.71	0.483328032	PROSPECT	lure	n/a	n/a	n/a	1
436.194	0.433328203	ABRIDGMENT	lure	n/a	n/a	n/a	1
436.627	0.683367426	POTENCY	lure	n/a	n/a	n/a	1
437.31	0.549942825	FEATHERBED	lure	n/a	n/a	n/a	1
437.86	0.633331248	GUARDSMAN	lure	n/a	n/a	n/a	1
438.494	0.499990716	LAMBSKIN	lure	n/a	n/a	n/a	1
438.994	0.39999573	SPEECH	lure	n/a	n/a	n/a	1
439.394	0.566657489	STINKER	lure	n/a	n/a	n/a	1
439.96	0.749986622	SUNBONNET	lure	n/a	n/a	n/a	1
440.71	0.616662562	WOOL	lure	n/a	n/a	n/a	1
441.327	0.550034091	BROOMSTICK	lure	n/a	n/a	n/a	1
441.877	1.016611052	LIME	fruit	601	2	2	1
442.894	0.533327697	CORRIDOR	lure	n/a	n/a	n/a	1
443.427	0.466713872	RECOVERY	lure	n/a	n/a	n/a	1
443.894	0.599934788	REGIME	lure	n/a	n/a	n/a	1
444.494	0.399992547	RESALE	lure	n/a	n/a	n/a	1
444.894	0.733320069	TERRY	lure	n/a	n/a	n/a	1
445.627	0.666718529	MAMMAL	lure	n/a	n/a	n/a	1
446.294	0.316663617	OBJECTION	lure	n/a	n/a	n/a	1
446.61	0.549991827	EXISTENCE	lure	n/a	n/a	n/a	1
447.16	0.599936931	DEUCE	lure	n/a	n/a	n/a	1
447.76	0.433325512	LITERALISM	lure	n/a	n/a	n/a	1
448.194	0.483326287	PAGEANT	lure	n/a	n/a	n/a	1
448.677	0.503680365	GIMMICK	lure	n/a	n/a	n/a	1
449.181	0.512973607	SWORDPLAY	lure	n/a	n/a	n/a	1
449.693	0.333328283	TREATISE	lure	n/a	n/a	n/a	1
450.027	2.016637311	SAIL	long	n/a	n/a	n/a	1
452.043	0.633322787	CROSSBOW	lure	n/a	n/a	n/a	1
452.677	0.666659614	LAMB	lure	n/a	n/a	n/a	1
453.343	0.349995027	DEFICIENCY	lure	n/a	n/a	n/a	1
453.693	0.583323995	WIDOW	lure	n/a	n/a	n/a	1
454.277	0.666652225	RICE	lure	n/a	n/a	n/a	1
454.943	0.766659289	GUPPY	lure	n/a	n/a	n/a	1
455.71	0.350052874	MEMBERSHIP	lure	n/a	n/a	n/a	1
456.06	0.50000141	BAGGAGE	lure	n/a	n/a	n/a	1
456.56	0.416596502	MARCHER	lure	n/a	n/a	n/a	1
456.977	0.350050353	LONGSHOT	lure	n/a	n/a	n/a	1
457.327	0.516659502	HEATWAVE	lure	n/a	n/a	n/a	1
457.843	0.466605039	GAGGLE	lure	n/a	n/a	n/a	1
458.31	0.353052798	COMPLEXION	lure	n/a	n/a	n/a	1
458.663	0.763599686	MOTORBOAT	lure	n/a	n/a	n/a	1
459.427	0.683321177	COMMA	lure	n/a	n/a	n/a	1
460.11	0.683384551	GLOBE	lure	n/a	n/a	n/a	1
460.793	0.316659727	CHOPPER	lure	n/a	n/a	n/a	1
461.11	0.683331236	MEDIATOR	lure	n/a	n/a	n/a	1
461.793	0.399931554	REGULATOR	lure	n/a	n/a	n/a	1
462.193	0.685469965	TRAGEDY	lure	n/a	n/a	n/a	1
462.879	0.681175178	SNOWDRIFT	lure	n/a	n/a	n/a	1
463.56	0.383328221	TRICKERY	lure	n/a	n/a	n/a	1
463.943	0.63332753	LUMBERYARD	lure	n/a	n/a	n/a	1
464.577	n/a	CLERGYMAN	lure	n/a	n/a	n/a	1