onset	duration	stim	cond	RT	resp	cresp	acc
4.049	0.396586161	FLAPPER	lure	n/a	n/a	n/a	1
4.445	0.366700281	PACEMAKER	lure	n/a	n/a	n/a	1
4.812	0.39995058	INFLUX	lure	n/a	n/a	n/a	1
5.212	0.749993179	HORSEPOWER	lure	n/a	n/a	n/a	1
5.962	0.566659125	BELLFLOWER	lure	n/a	n/a	n/a	1
6.529	0.466660845	ATMOSPHERE	lure	n/a	n/a	n/a	1
6.995	0.533325772	SWORDFISH	lure	n/a	n/a	n/a	1
7.529	0.333330749	LECTURER	lure	n/a	n/a	n/a	1
7.862	2.016640321	TRIPOD	long	n/a	n/a	n/a	1
9.879	0.599990024	CHOPPER	lure	n/a	n/a	n/a	1
10.479	0.733320457	TOXICITY	lure	n/a	n/a	n/a	1
11.212	0.433373311	HERBIVORE	lure	n/a	n/a	n/a	1
11.645	0.616613329	UNDERGRAD	lure	n/a	n/a	n/a	1
12.262	0.416657291	CALAMITY	lure	n/a	n/a	n/a	1
12.679	0.6500596	SECULARISM	lure	n/a	n/a	n/a	1
13.329	0.333262945	FLAIR	lure	n/a	n/a	n/a	1
13.662	0.666658215	ADVERTISER	lure	n/a	n/a	n/a	1
14.329	0.549989712	GLACIER	lure	n/a	n/a	n/a	1
14.879	0.449994373	JAB	lure	n/a	n/a	n/a	1
15.329	0.649989652	BUTCHERY	lure	n/a	n/a	n/a	1
15.979	2.016641461	LABEL	long	n/a	n/a	n/a	1
17.995	0.583365877	INNING	lure	n/a	n/a	n/a	1
18.579	0.700007781	BANNER	lure	n/a	n/a	n/a	1
19.279	0.4167067	JAY	lure	n/a	n/a	n/a	1
19.695	0.566554704	WINDJAMMER	lure	n/a	n/a	n/a	1
20.262	0.63332502	MIDDLEMAN	lure	n/a	n/a	n/a	1
20.895	0.583393421	METHYL	lure	n/a	n/a	n/a	1
21.479	0.566583616	WINNER	lure	n/a	n/a	n/a	1
22.045	0.549998832	LATTER	lure	n/a	n/a	n/a	1
22.595	0.699985115	FRAILTY	lure	n/a	n/a	n/a	1
23.295	0.316727972	GEM	lure	n/a	n/a	n/a	1
23.612	0.683293981	PEPTIDE	lure	n/a	n/a	n/a	1
24.295	1.016615487	CHERRY	fruit	614	2	2	1
25.312	0.499995513	DIRECTOR	lure	n/a	n/a	n/a	1
25.812	0.66666023	ACTIVISM	lure	n/a	n/a	n/a	1
26.478	0.466704087	EXPOSITION	lure	n/a	n/a	n/a	1
26.945	0.349945039	SORORITY	lure	n/a	n/a	n/a	1
27.295	0.699995494	BORDERLAND	lure	n/a	n/a	n/a	1
27.995	0.449990664	THEME	lure	n/a	n/a	n/a	1
28.445	0.449996341	MARATHON	lure	n/a	n/a	n/a	1
28.895	0.500052891	ISLAND	lure	n/a	n/a	n/a	1
29.395	0.666599441	DISCOVERER	lure	n/a	n/a	n/a	1
30.062	0.333370506	MAILER	lure	n/a	n/a	n/a	1
30.395	0.383333372	BRIGADE	lure	n/a	n/a	n/a	1
30.778	0.583273832	MALT	lure	n/a	n/a	n/a	1
31.362	0.566658671	DISHARMONY	lure	n/a	n/a	n/a	1
31.928	0.766658642	WARHORSE	lure	n/a	n/a	n/a	1
32.695	0.616656545	CHROME	short	n/a	n/a	n/a	1
33.312	0.433324334	GOSPEL	lure	n/a	n/a	n/a	1
33.745	0.366661523	ANEMIA	lure	n/a	n/a	n/a	1
34.112	0.483326219	THROWER	lure	n/a	n/a	n/a	1
34.595	0.483328157	TRIBE	lure	n/a	n/a	n/a	1
35.078	0.533328021	DUNE	lure	n/a	n/a	n/a	1
35.612	0.683320413	POSTBOX	lure	n/a	n/a	n/a	1
36.295	0.599992683	QUOTATION	lure	n/a	n/a	n/a	1
36.895	0.733326307	EXPRESSION	lure	n/a	n/a	n/a	1
37.628	0.699987831	ASSAILANT	lure	n/a	n/a	n/a	1
38.328	0.449992193	SCRIPTURE	lure	n/a	n/a	n/a	1
38.778	0.383331387	TUMBLER	lure	n/a	n/a	n/a	1
39.162	0.549983935	WINDSTORM	lure	n/a	n/a	n/a	1
39.712	0.533334159	REALIST	lure	n/a	n/a	n/a	1
40.245	0.583327397	SIMULATION	lure	n/a	n/a	n/a	1
40.828	2.016629418	PYRAMID	long	745	2	n/a	0
42.845	0.583372644	DOMINATION	lure	n/a	n/a	n/a	1
43.428	0.699945804	FINGERNAIL	lure	n/a	n/a	n/a	1
44.128	0.399994294	DREAMWORLD	lure	n/a	n/a	n/a	1
44.528	0.533330527	GIFT	lure	n/a	n/a	n/a	1
45.061	0.449985608	LOT	lure	n/a	n/a	n/a	1
45.511	0.71665937	JAILBIRD	lure	n/a	n/a	n/a	1
46.228	0.733322522	MERINGUE	lure	n/a	n/a	n/a	1
46.961	0.716658648	CONTRACTOR	lure	n/a	n/a	n/a	1
47.678	0.733320219	ALTAR	lure	n/a	n/a	n/a	1
48.411	0.700037127	HERDSMAN	lure	n/a	n/a	n/a	1
49.111	0.616610964	ARCTIC	short	n/a	n/a	n/a	1
49.728	0.534867823	SURCHARGE	lure	n/a	n/a	n/a	1
50.263	0.648451291	GEEZER	lure	n/a	n/a	n/a	1
50.911	0.350040914	THUG	lure	n/a	n/a	n/a	1
51.261	0.399946086	JIGSAW	lure	n/a	n/a	n/a	1
51.661	0.516658369	COLE	lure	n/a	n/a	n/a	1
52.178	0.499994235	CITADEL	lure	n/a	n/a	n/a	1
52.678	0.616657986	CANDOR	lure	n/a	n/a	n/a	1
53.295	0.749989737	DARKROOM	lure	n/a	n/a	n/a	1
54.045	0.56665883	MARKSMAN	lure	n/a	n/a	n/a	1
54.611	0.349994348	BULLFROG	lure	n/a	n/a	n/a	1
54.961	0.666657666	MANPOWER	lure	n/a	n/a	n/a	1
55.628	0.49999231	BIGAMY	lure	n/a	n/a	n/a	1
56.128	0.483327653	COPYRIGHT	lure	n/a	n/a	n/a	1
56.611	0.549991852	SUPERSTAR	lure	n/a	n/a	n/a	1
57.161	0.333329762	MORPHOLOGY	lure	n/a	n/a	n/a	1
57.495	0.649991286	REGISTER	short	n/a	n/a	n/a	1
58.145	0.6333248	MILKSHAKE	lure	n/a	n/a	n/a	1
58.778	0.399991823	TERRAIN	lure	n/a	n/a	n/a	1
59.178	0.666658153	ARTIFACT	lure	n/a	n/a	n/a	1
59.845	0.433325371	DUNGEON	lure	n/a	n/a	n/a	1
60.278	0.566661699	DETENTION	lure	n/a	n/a	n/a	1
60.845	0.549989958	HANDLER	lure	n/a	n/a	n/a	1
61.395	0.383327796	BASKET	lure	n/a	n/a	n/a	1
61.778	0.399993346	SCOPE	lure	n/a	n/a	n/a	1
62.178	0.449994489	INITIATIVE	lure	n/a	n/a	n/a	1
62.628	0.433388095	PARKLAND	lure	n/a	n/a	n/a	1
63.061	0.533267339	CRADLE	lure	n/a	n/a	n/a	1
63.595	0.333385351	CONCEIT	lure	n/a	n/a	n/a	1
63.928	0.533269181	VOLTAGE	lure	n/a	n/a	n/a	1
64.461	0.616719174	SAMPLER	lure	n/a	n/a	n/a	1
65.078	0.449977366	FARMLAND	lure	n/a	n/a	n/a	1
65.528	0.616667247	PIN	short	n/a	n/a	n/a	1
66.145	0.549936072	PIANIST	lure	n/a	n/a	n/a	1
66.695	0.549992697	CALCULATOR	lure	n/a	n/a	n/a	1
67.244	0.466660398	RELUCTANCE	lure	n/a	n/a	n/a	1
67.711	0.733322239	ROADHOUSE	lure	n/a	n/a	n/a	1
68.444	0.366719057	THORN	lure	n/a	n/a	n/a	1
68.811	0.533267366	FATALISM	lure	n/a	n/a	n/a	1
69.344	0.349995727	MORON	lure	n/a	n/a	n/a	1
69.694	0.716657014	FAILURE	lure	n/a	n/a	n/a	1
70.411	0.316739623	HOSTILITY	lure	n/a	n/a	n/a	1
70.728	0.433249237	SLATE	lure	n/a	n/a	n/a	1
71.161	0.683326401	CUBISM	lure	n/a	n/a	n/a	1
71.844	0.366660199	DRUMSTICK	lure	n/a	n/a	n/a	1
72.211	0.466658651	HARPIST	lure	n/a	n/a	n/a	1
72.678	0.649987304	HATCHBACK	lure	n/a	n/a	n/a	1
73.328	0.433331043	NONSMOKER	lure	n/a	n/a	n/a	1
73.761	1.018512579	MULBERRY	fruit	820	2	2	1
74.78	0.649567837	CHAMPAIGN	lure	n/a	n/a	n/a	1
75.429	0.431892133	EQUALITY	lure	n/a	n/a	n/a	1
75.861	0.699984147	ARCHITECT	lure	n/a	n/a	n/a	1
76.561	0.66665915	MUSICIAN	lure	n/a	n/a	n/a	1
77.228	0.566660597	SALVATION	lure	n/a	n/a	n/a	1
77.794	0.450042551	PUN	lure	n/a	n/a	n/a	1
78.244	0.433278185	CYCLONE	lure	n/a	n/a	n/a	1
78.678	0.699990138	SLEEPER	lure	n/a	n/a	n/a	1
79.378	0.533399857	MINDER	lure	n/a	n/a	n/a	1
79.911	0.566585093	UPSHOT	lure	n/a	n/a	n/a	1
80.478	0.566659671	EPITAPH	lure	n/a	n/a	n/a	1
81.044	0.349993002	SAUSAGE	lure	n/a	n/a	n/a	1
81.394	0.333328762	OUTCRY	lure	n/a	n/a	n/a	1
81.728	0.616654116	MORNING	short	n/a	n/a	n/a	1
82.344	0.333333048	CITATION	lure	n/a	n/a	n/a	1
82.678	0.516659387	LANDSCAPE	lure	n/a	n/a	n/a	1
83.194	0.566716699	INVENTORY	lure	n/a	n/a	n/a	1
83.761	0.566599212	KITE	lure	n/a	n/a	n/a	1
84.328	0.533412107	SLIPSTREAM	lure	n/a	n/a	n/a	1
84.861	0.733233607	FEEDER	lure	n/a	n/a	n/a	1
85.594	0.633392482	TURNCOAT	lure	n/a	n/a	n/a	1
86.228	0.466644365	MUTATION	lure	n/a	n/a	n/a	1
86.694	0.716608728	LOCKJAW	lure	n/a	n/a	n/a	1
87.411	0.316662682	SOMEONE	lure	n/a	n/a	n/a	1
87.728	0.549991938	GLIDER	lure	n/a	n/a	n/a	1
88.278	0.399990789	FRATERNITY	lure	n/a	n/a	n/a	1
88.678	0.65193919	CHIMP	lure	n/a	n/a	n/a	1
89.329	0.764710837	EJECTOR	lure	n/a	n/a	n/a	1
90.094	2.016638912	COAT	long	n/a	n/a	n/a	1
92.111	0.666656375	EXCERPT	lure	n/a	n/a	n/a	1
92.777	0.451856404	EARPHONE	lure	n/a	n/a	n/a	1
93.229	0.448132666	CAUSATION	lure	n/a	n/a	n/a	1
93.677	0.533325261	COMPLEXITY	lure	n/a	n/a	n/a	1
94.211	0.399991134	SINGLETON	lure	n/a	n/a	n/a	1
94.611	0.699991385	TAXICAB	lure	n/a	n/a	n/a	1
95.311	0.349996842	JASPER	lure	n/a	n/a	n/a	1
95.661	0.566657489	BARNACLE	lure	n/a	n/a	n/a	1
96.227	0.6999896	BRAIN	lure	n/a	n/a	n/a	1
96.927	0.433330351	REPAYMENT	lure	n/a	n/a	n/a	1
97.361	0.700023729	SACRILEGE	lure	n/a	n/a	n/a	1
98.061	2.016601397	APRON	long	n/a	n/a	n/a	1
100.077	0.516660463	LITIGATION	lure	n/a	n/a	n/a	1
100.594	0.416660179	LAGOON	lure	n/a	n/a	n/a	1
101.011	0.616657675	REGGAE	lure	n/a	n/a	n/a	1
101.627	0.516713895	OBJECTOR	lure	n/a	n/a	n/a	1
102.144	0.733398673	SCAPEGOAT	lure	n/a	n/a	n/a	1
102.877	0.733290302	SOUL	lure	n/a	n/a	n/a	1
103.611	0.566560546	ABBOT	lure	n/a	n/a	n/a	1
104.177	0.400053667	HAIRLINE	lure	n/a	n/a	n/a	1
104.577	0.699931591	MIDNIGHT	lure	n/a	n/a	n/a	1
105.277	0.73822691	MATADOR	lure	n/a	n/a	n/a	1
106.016	0.511756866	CREWMAN	lure	n/a	n/a	n/a	1
106.527	2.016638466	POLE	long	n/a	n/a	n/a	1
108.544	0.466658501	DRUGGIST	lure	n/a	n/a	n/a	1
109.011	0.56666011	POLYMER	lure	n/a	n/a	n/a	1
109.577	0.749985343	SALESGIRL	lure	n/a	n/a	n/a	1
110.327	0.316665224	PLUMBER	lure	n/a	n/a	n/a	1
110.644	0.649989918	IMMEDIACY	lure	n/a	n/a	n/a	1
111.294	0.583326764	GOURMET	lure	n/a	n/a	n/a	1
111.877	0.549992471	CROSSROAD	lure	n/a	n/a	n/a	1
112.427	0.466659796	QUICKSAND	lure	n/a	n/a	n/a	1
112.894	0.616655758	TRADEMARK	lure	n/a	n/a	n/a	1
113.511	0.416661655	PATRONAGE	lure	n/a	n/a	n/a	1
113.927	0.500051979	HOMETOWN	lure	n/a	n/a	n/a	1
114.427	0.633266366	STOCKADE	lure	n/a	n/a	n/a	1
115.06	2.016632619	FOAM	long	n/a	n/a	n/a	1
117.077	0.499997512	BOAR	lure	n/a	n/a	n/a	1
117.577	0.516658545	LAYOFF	lure	n/a	n/a	n/a	1
118.094	0.483327839	WATERSPOUT	lure	n/a	n/a	n/a	1
118.577	0.566657817	SHARKSKIN	lure	n/a	n/a	n/a	1
119.144	0.683323425	PAIL	lure	n/a	n/a	n/a	1
119.827	0.366657927	CONVOY	lure	n/a	n/a	n/a	1
120.194	0.733325224	POLICY	lure	n/a	n/a	n/a	1
120.927	0.649992652	PRESSMAN	lure	n/a	n/a	n/a	1
121.577	0.366660007	PETUNIA	lure	n/a	n/a	n/a	1
121.944	0.4500441	MEAL	lure	n/a	n/a	n/a	1
122.394	0.566675014	DUTY	lure	n/a	n/a	n/a	1
122.96	0.783255369	INFORMER	lure	n/a	n/a	n/a	1
123.744	0.616659387	SEAT	short	n/a	n/a	n/a	1
124.36	0.599987553	READERSHIP	lure	n/a	n/a	n/a	1
124.96	0.650039829	PEPPERMINT	lure	n/a	n/a	n/a	1
125.61	0.550005179	MANIFESTO	lure	n/a	n/a	n/a	1
126.16	0.566687592	ROYALE	lure	n/a	n/a	n/a	1
126.727	0.749904325	STONEWARE	lure	n/a	n/a	n/a	1
127.477	0.533362765	SETTER	lure	n/a	n/a	n/a	1
128.01	0.316667314	BOATLOAD	lure	n/a	n/a	n/a	1
128.327	0.666661496	GIRLFRIEND	lure	n/a	n/a	n/a	1
128.994	0.583276591	ALLERGY	lure	n/a	n/a	n/a	1
129.577	0.416661825	MAGNOLIA	lure	n/a	n/a	n/a	1
129.994	0.316719545	COWHERD	lure	n/a	n/a	n/a	1
130.31	0.766597734	RACQUET	lure	n/a	n/a	n/a	1
131.077	0.399995264	NEWSPAPER	lure	n/a	n/a	n/a	1
131.477	0.566657799	WEEKNIGHT	lure	n/a	n/a	n/a	1
132.044	0.616653225	PISTOL	short	n/a	n/a	n/a	1
132.66	0.583381783	ISLE	lure	n/a	n/a	n/a	1
133.244	0.652475158	STADIUM	lure	n/a	n/a	n/a	1
133.896	0.464124142	DEDICATION	lure	n/a	n/a	n/a	1
134.36	0.483325082	OUTHOUSE	lure	n/a	n/a	n/a	1
134.844	0.616658292	ZOMBIE	lure	n/a	n/a	n/a	1
135.46	0.33340702	DISPENSER	lure	n/a	n/a	n/a	1
135.794	0.683249453	TORMENTOR	lure	n/a	n/a	n/a	1
136.477	0.649989288	PLAYPEN	lure	n/a	n/a	n/a	1
137.127	0.48332582	CADDIE	lure	n/a	n/a	n/a	1
137.61	0.333329298	Un/aEASON	lure	n/a	n/a	n/a	1
137.944	0.666655438	PLENTY	lure	n/a	n/a	n/a	1
138.61	0.350040925	OUTFIELD	lure	n/a	n/a	n/a	1
138.96	0.749941327	THEATER	lure	n/a	n/a	n/a	1
139.71	0.416667293	PUNISHMENT	lure	n/a	n/a	n/a	1
140.127	2.016634944	BELT	long	n/a	n/a	n/a	1
142.143	0.633323485	TURBULENCE	lure	n/a	n/a	n/a	1
142.777	0.633326399	PRECESSION	lure	n/a	n/a	n/a	1
143.41	0.500097831	STEIN	lure	n/a	n/a	n/a	1
143.91	0.433221782	SOUTHPAW	lure	n/a	n/a	n/a	1
144.343	0.449992083	ARMBAND	lure	n/a	n/a	n/a	1
144.793	0.566659922	COCKROACH	lure	n/a	n/a	n/a	1
145.36	0.599991417	VOYEUR	lure	n/a	n/a	n/a	1
145.96	0.4333289	PINUP	lure	n/a	n/a	n/a	1
146.393	0.583322345	EQUITY	lure	n/a	n/a	n/a	1
146.977	0.533326542	PRINTOUT	lure	n/a	n/a	n/a	1
147.51	0.533325472	BASSINET	lure	n/a	n/a	n/a	1
148.043	2.016641691	PICK	long	n/a	n/a	n/a	1
150.06	0.483323743	IDENTITY	lure	n/a	n/a	n/a	1
150.543	0.533326334	COALFIELD	lure	n/a	n/a	n/a	1
151.077	0.550050795	WRISTWATCH	lure	n/a	n/a	n/a	1
151.627	0.433328702	GUNMEN	lure	n/a	n/a	n/a	1
152.06	0.399934234	DOWNTURN	lure	n/a	n/a	n/a	1
152.46	0.433329491	CONDENSER	lure	n/a	n/a	n/a	1
152.893	0.49998956	APPAREL	lure	n/a	n/a	n/a	1
153.393	0.316664048	DOUCHE	lure	n/a	n/a	n/a	1
153.71	0.366706368	FISHERMAN	lure	n/a	n/a	n/a	1
154.077	0.416665245	GLADE	lure	n/a	n/a	n/a	1
154.493	0.599940278	DRUMHEAD	lure	n/a	n/a	n/a	1
155.093	0.399995814	BROCCOLI	lure	n/a	n/a	n/a	1
155.493	0.553739699	CULTIST	lure	n/a	n/a	n/a	1
156.047	0.746241339	REALISM	lure	n/a	n/a	n/a	1
156.793	0.616659555	ARROW	short	n/a	n/a	n/a	1
157.41	0.383386823	RIVERBOAT	lure	n/a	n/a	n/a	1
157.793	0.583322616	TYPOGRAPHY	lure	n/a	n/a	n/a	1
158.377	0.466596322	REBIRTH	lure	n/a	n/a	n/a	1
158.843	0.366667729	COUNTRYMEN	lure	n/a	n/a	n/a	1
159.21	0.333327542	FLOWCHART	lure	n/a	n/a	n/a	1
159.543	0.583326388	DEACON	lure	n/a	n/a	n/a	1
160.127	0.766656473	STORAGE	lure	n/a	n/a	n/a	1
160.893	0.383329821	EVERYBODY	lure	n/a	n/a	n/a	1
161.277	0.750079307	GENTLEMAN	lure	n/a	n/a	n/a	1
162.027	0.533234622	MAT	lure	n/a	n/a	n/a	1
162.56	0.683315616	MONEY	lure	n/a	n/a	n/a	1
163.243	0.601445896	HOBBY	lure	n/a	n/a	n/a	1
163.845	0.698797222	EXHALATION	lure	n/a	n/a	n/a	1
164.543	0.649737745	LOOKER	lure	n/a	n/a	n/a	1
165.193	1.016650264	CRANBERRY	fruit	748	2	2	1
166.21	0.333329633	PARKA	lure	n/a	n/a	n/a	1
166.543	0.450031574	PUPPETEER	lure	n/a	n/a	n/a	1
166.993	0.649953273	IMPRINT	lure	n/a	n/a	n/a	1
167.643	0.68332591	INVALID	lure	n/a	n/a	n/a	1
168.326	0.366766482	LOGARITHM	lure	n/a	n/a	n/a	1
168.693	0.433260271	FRIGIDITY	lure	n/a	n/a	n/a	1
169.126	0.749946685	COBBLER	lure	n/a	n/a	n/a	1
169.876	0.649987081	TROUSER	lure	n/a	n/a	n/a	1
170.526	0.366665277	DOGHOUSE	lure	n/a	n/a	n/a	1
170.893	0.585589927	PROTESTER	lure	n/a	n/a	n/a	1
171.479	0.58556576	CORRIDOR	lure	n/a	n/a	n/a	1
172.064	0.712567373	TEETH	lure	n/a	n/a	n/a	1
172.777	0.366244624	CALYPSO	lure	n/a	n/a	n/a	1
173.143	1.016700102	BANANA	fruit	782	2	2	1
174.16	0.683279285	KILOMETER	lure	n/a	n/a	n/a	1
174.843	0.64998695	COMMANDER	lure	n/a	n/a	n/a	1
175.493	0.583326664	DUNCE	lure	n/a	n/a	n/a	1
176.076	0.716654969	MILLER	lure	n/a	n/a	n/a	1
176.793	0.466772147	TRADESMEN	lure	n/a	n/a	n/a	1
177.26	0.383212791	DIGGER	lure	n/a	n/a	n/a	1
177.643	0.333333361	PRODUCER	lure	n/a	n/a	n/a	1
177.976	0.583319218	VAPOR	lure	n/a	n/a	n/a	1
178.56	0.487848669	CHOW	lure	n/a	n/a	n/a	1
179.047	0.579568439	PERSECUTOR	lure	n/a	n/a	n/a	1
179.627	0.53256569	ESTIMATION	lure	n/a	n/a	n/a	1
180.16	0.633327266	CHASM	lure	n/a	n/a	n/a	1
180.793	0.36666336	WISP	lure	n/a	n/a	n/a	1
181.16	2.016633328	CRAYON	long	n/a	n/a	n/a	1
183.176	0.69998733	KNOCKDOWN	lure	n/a	n/a	n/a	1
183.876	0.616664347	GLASSWARE	lure	n/a	n/a	n/a	1
184.493	0.566655788	MENACE	lure	n/a	n/a	n/a	1
185.06	0.350060053	TEABAG	lure	n/a	n/a	n/a	1
185.41	0.58326319	LINEMAN	lure	n/a	n/a	n/a	1
185.993	0.483374947	TACT	lure	n/a	n/a	n/a	1
186.476	0.749941344	LEVITY	lure	n/a	n/a	n/a	1
187.226	0.383325555	COUCH	lure	n/a	n/a	n/a	1
187.609	0.516709229	LOUNGER	lure	n/a	n/a	n/a	1
188.126	0.383279482	ALMOND	lure	n/a	n/a	n/a	1
188.509	0.36666139	ALFALFA	lure	n/a	n/a	n/a	1
188.876	0.483322309	ADEQUACY	lure	n/a	n/a	n/a	1
189.359	1.016657993	APPLE	fruit	781	2	2	1
190.376	0.700051654	MEDALLION	lure	n/a	n/a	n/a	1
191.076	0.549971395	GRANDSON	lure	n/a	n/a	n/a	1
191.626	0.599995406	ADVERB	lure	n/a	n/a	n/a	1
192.226	0.499946843	ADJUSTMENT	lure	n/a	n/a	n/a	1
192.726	0.583325012	LITERALISM	lure	n/a	n/a	n/a	1
193.309	0.599987102	WHEAT	lure	n/a	n/a	n/a	1
193.909	0.633362092	INKWELL	lure	n/a	n/a	n/a	1
194.543	0.733355461	REVENGE	lure	n/a	n/a	n/a	1
195.276	0.699967603	MORALE	lure	n/a	n/a	n/a	1
195.976	0.633279169	GASTRONOMY	lure	n/a	n/a	n/a	1
196.609	0.699992608	BANISHMENT	lure	n/a	n/a	n/a	1
197.309	0.566714528	COASTGUARD	lure	n/a	n/a	n/a	1
197.876	1.020218977	PEAR	fruit	769	2	2	1
198.896	0.413559743	COWBELL	lure	n/a	n/a	n/a	1
199.31	0.666136408	DEMOGRAPHY	lure	n/a	n/a	n/a	1
199.976	0.483320681	FISHERY	lure	n/a	n/a	n/a	1
200.459	0.416663838	PARTIALITY	lure	n/a	n/a	n/a	1
200.876	0.483326473	ABOLITION	lure	n/a	n/a	n/a	1
201.359	0.5499909	RUSTLER	lure	n/a	n/a	n/a	1
201.909	0.733322462	CAVEMEN	lure	n/a	n/a	n/a	1
202.643	0.437144926	GOOBER	lure	n/a	n/a	n/a	1
203.08	0.329513951	HALL	lure	n/a	n/a	n/a	1
203.409	0.316659276	ACCORDION	lure	n/a	n/a	n/a	1
203.726	0.766657471	DREAMBOAT	lure	n/a	n/a	n/a	1
204.493	0.749985083	AIRPORT	lure	n/a	n/a	n/a	1
205.243	0.43332873	HERNIA	lure	n/a	n/a	n/a	1
205.676	0.516662239	ROSTER	lure	n/a	n/a	n/a	1
206.193	0.616659578	MOUNTAIN	short	n/a	n/a	n/a	1
206.809	0.383326452	THREAT	lure	n/a	n/a	n/a	1
207.193	0.649987935	CINDER	lure	n/a	n/a	n/a	1
207.843	0.733323577	BARN	lure	n/a	n/a	n/a	1
208.576	0.366662025	FOREGROUND	lure	n/a	n/a	n/a	1
208.942	0.549995885	TEENAGER	lure	n/a	n/a	n/a	1
209.492	0.483324302	BLOWER	lure	n/a	n/a	n/a	1
209.976	0.34999406	EXORCISM	lure	n/a	n/a	n/a	1
210.326	0.616656182	OUTFIT	lure	n/a	n/a	n/a	1
210.942	0.649991977	OVERTIME	lure	n/a	n/a	n/a	1
211.592	0.599994461	AMPLITUDE	lure	n/a	n/a	n/a	1
212.192	0.33332613	SEQUOIA	lure	n/a	n/a	n/a	1
212.526	0.65353824	ATHLETE	lure	n/a	n/a	n/a	1
213.179	0.496446882	BEDFELLOW	lure	n/a	n/a	n/a	1
213.676	0.683907828	SARCASM	lure	n/a	n/a	n/a	1
214.36	0.349409346	OUTPOURING	lure	n/a	n/a	n/a	1
214.709	0.616659362	CANDLE	short	n/a	n/a	n/a	1
215.326	0.499991924	DUKE	lure	n/a	n/a	n/a	1
215.826	0.766659018	AGGRESSOR	lure	n/a	n/a	n/a	1
216.592	0.399990444	REFLECTOR	lure	n/a	n/a	n/a	1
216.992	0.75163618	POLARITY	lure	n/a	n/a	n/a	1
217.744	0.565014141	STAMINA	lure	n/a	n/a	n/a	1
218.309	0.749991104	FATHEAD	lure	n/a	n/a	n/a	1
219.059	0.533325875	OVERDRAFT	lure	n/a	n/a	n/a	1
219.592	0.383325232	SKETCHPAD	lure	n/a	n/a	n/a	1
219.976	0.333383604	REVOLUTION	lure	n/a	n/a	n/a	1
220.309	0.499939134	PENDANT	lure	n/a	n/a	n/a	1
220.809	0.633374204	HARDTACK	lure	n/a	n/a	n/a	1
221.442	0.433276012	MAGNUM	lure	n/a	n/a	n/a	1
221.876	0.583321584	MEDIOCRITY	lure	n/a	n/a	n/a	1
222.459	0.583329676	GHOUL	lure	n/a	n/a	n/a	1
223.042	0.466654242	DIARY	lure	n/a	n/a	n/a	1
223.509	0.449998551	HAIRSTYLE	lure	n/a	n/a	n/a	1
223.959	0.40005442	PACIFISM	lure	n/a	n/a	n/a	1
224.359	0.733324046	PAGEANTRY	lure	n/a	n/a	n/a	1
225.092	0.633320978	PILLOWCASE	lure	n/a	n/a	n/a	1
225.726	0.533268108	BOURBON	lure	n/a	n/a	n/a	1
226.259	0.53332652	DRAWER	lure	n/a	n/a	n/a	1
226.792	n/a	FOREFATHER	lure	n/a	n/a	n/a	1
238.009	0.7166593	CORRUPTER	lure	n/a	n/a	n/a	1
238.725	0.416658086	COYOTE	lure	n/a	n/a	n/a	1
239.142	0.749989862	FACULTY	lure	n/a	n/a	n/a	1
239.892	0.449993953	MERMAID	lure	n/a	n/a	n/a	1
240.342	0.699990949	ALLURE	lure	n/a	n/a	n/a	1
241.042	0.73338052	JUG	lure	n/a	n/a	n/a	1
241.775	2.016581322	COAT	long	n/a	n/a	n/a	1
243.792	0.53337173	MERCER	lure	n/a	n/a	n/a	1
244.325	0.449947053	GREENHOUSE	lure	n/a	n/a	n/a	1
244.775	0.683319295	SOFTBALL	lure	n/a	n/a	n/a	1
245.459	0.36666319	CHLORIDE	lure	n/a	n/a	n/a	1
245.825	0.750064007	DYNAMO	lure	n/a	n/a	n/a	1
246.575	0.416587821	VEAL	lure	n/a	n/a	n/a	1
246.992	0.602306834	FIDELITY	lure	n/a	n/a	n/a	1
247.594	0.397680584	YEARLING	lure	n/a	n/a	n/a	1
247.992	0.334440573	CRITICISM	lure	n/a	n/a	n/a	1
248.326	0.698941291	MAESTRO	lure	n/a	n/a	n/a	1
249.025	0.316594281	PRECINCT	lure	n/a	n/a	n/a	1
249.342	0.700065899	MAXIMUM	lure	n/a	n/a	n/a	1
250.042	2.049897152	PICK	long	n/a	n/a	n/a	1
252.092	0.650087292	LONGHORN	lure	n/a	n/a	n/a	1
252.742	0.633310203	PAVILION	lure	n/a	n/a	n/a	1
253.375	0.449912897	FAITH	lure	n/a	n/a	n/a	1
253.825	0.599991402	EFFICIENCY	lure	n/a	n/a	n/a	1
254.425	0.316661763	TOXIN	lure	n/a	n/a	n/a	1
254.742	0.566659052	REFRACTION	lure	n/a	n/a	n/a	1
255.309	0.716653204	WOE	lure	n/a	n/a	n/a	1
256.025	0.416661452	TEARDROP	lure	n/a	n/a	n/a	1
256.442	0.399996166	INSOLENCE	lure	n/a	n/a	n/a	1
256.842	0.549992469	MILLILITER	lure	n/a	n/a	n/a	1
257.392	0.399994034	FELICITY	lure	n/a	n/a	n/a	1
257.792	0.616659382	PISTOL	short	n/a	n/a	n/a	1
258.408	0.666653957	ACCORDANCE	lure	n/a	n/a	n/a	1
259.075	0.466663132	DESERTION	lure	n/a	n/a	n/a	1
259.542	0.650037332	COGNITION	lure	n/a	n/a	n/a	1
260.192	0.316664145	LEAFLET	lure	n/a	n/a	n/a	1
260.508	0.333347316	GRATUITY	lure	n/a	n/a	n/a	1
260.842	0.416592136	SUNLIGHT	lure	n/a	n/a	n/a	1
261.258	0.48332747	WART	lure	n/a	n/a	n/a	1
261.742	0.550038286	SHAKER	lure	n/a	n/a	n/a	1
262.292	0.683276814	DICTIONARY	lure	n/a	n/a	n/a	1
262.975	0.416720903	HIDEAWAY	lure	n/a	n/a	n/a	1
263.392	0.349935636	DISCOVERY	lure	n/a	n/a	n/a	1
263.742	0.716718974	RECOURSE	lure	n/a	n/a	n/a	1
264.458	0.316649098	GYPSY	lure	n/a	n/a	n/a	1
264.775	0.333327421	FANFARE	lure	n/a	n/a	n/a	1
265.108	0.69994235	INFIELD	lure	n/a	n/a	n/a	1
265.808	0.649990066	CUTICLE	lure	n/a	n/a	n/a	1
266.458	1.0166541	CHERRY	fruit	970	2	2	1
267.475	0.399992131	DIFFICULTY	lure	n/a	n/a	n/a	1
267.875	0.683372137	CLUMP	lure	n/a	n/a	n/a	1
268.558	0.483278869	SUBWAY	lure	n/a	n/a	n/a	1
269.042	0.399993926	XENOPHOBIA	lure	n/a	n/a	n/a	1
269.442	0.466719456	BULB	lure	n/a	n/a	n/a	1
269.908	0.383269417	DEFENSE	lure	n/a	n/a	n/a	1
270.292	0.599992109	AMP	lure	n/a	n/a	n/a	1
270.892	0.668491168	MICROSCOPY	lure	n/a	n/a	n/a	1
271.56	0.631490191	INFIRMARY	lure	n/a	n/a	n/a	1
272.192	0.466659125	WEEKDAY	lure	n/a	n/a	n/a	1
272.658	0.566659524	BARB	lure	n/a	n/a	n/a	1
273.225	0.466660405	INEQUALITY	lure	n/a	n/a	n/a	1
273.692	0.533325439	REFEREE	lure	n/a	n/a	n/a	1
274.225	0.366661593	GODCHILD	lure	n/a	n/a	n/a	1
274.592	0.616715879	CANDLE	short	n/a	n/a	n/a	1
275.208	0.549995022	PROCESSOR	lure	n/a	n/a	n/a	1
275.758	0.466595611	INJUSTICE	lure	n/a	n/a	n/a	1
276.225	0.683326917	SECESSION	lure	n/a	n/a	n/a	1
276.908	0.566653321	FIRTH	lure	n/a	n/a	n/a	1
277.475	0.349997082	DYNASTY	lure	n/a	n/a	n/a	1
277.825	0.549994481	RACKETEER	lure	n/a	n/a	n/a	1
278.375	0.483372739	BENEFICENT	lure	n/a	n/a	n/a	1
278.858	0.633280517	LOYALTY	lure	n/a	n/a	n/a	1
279.492	0.549990667	SALESCLERK	lure	n/a	n/a	n/a	1
280.041	0.566660007	ANYBODY	lure	n/a	n/a	n/a	1
280.608	0.483371192	SATIRE	lure	n/a	n/a	n/a	1
281.092	0.383281999	NOMINATION	lure	n/a	n/a	n/a	1
281.475	0.616658976	FOOTHILL	lure	n/a	n/a	n/a	1
282.091	0.566657075	DEFECTION	lure	n/a	n/a	n/a	1
282.658	0.349996115	SETTLER	lure	n/a	n/a	n/a	1
283.008	2.049970582	POLE	long	n/a	n/a	n/a	1
285.058	0.53332668	SPHINX	lure	n/a	n/a	n/a	1
285.591	0.466655704	STOVE	lure	n/a	n/a	n/a	1
286.058	0.449998208	SCRATCHPAD	lure	n/a	n/a	n/a	1
286.508	0.366659826	MULLET	lure	n/a	n/a	n/a	1
286.875	0.316662742	FIREDOG	lure	n/a	n/a	n/a	1
287.191	0.333329326	RETRACTION	lure	n/a	n/a	n/a	1
287.525	0.616658988	HIVE	lure	n/a	n/a	n/a	1
288.141	0.333327752	SAUCE	lure	n/a	n/a	n/a	1
288.475	0.733323545	DARTBOARD	lure	n/a	n/a	n/a	1
289.208	0.799987095	AFFECTION	lure	n/a	n/a	n/a	1
290.008	0.499993294	CHECKER	lure	n/a	n/a	n/a	1
290.508	0.602705729	SONOGRAM	lure	n/a	n/a	n/a	1
291.111	1.018573861	PLUM	fruit	830	2	2	1
292.129	0.712021543	PIGLET	lure	n/a	n/a	n/a	1
292.841	0.74998864	PANEL	lure	n/a	n/a	n/a	1
293.591	0.599989331	YACHTSMAN	lure	n/a	n/a	n/a	1
294.191	0.39999504	BOOKSELLER	lure	n/a	n/a	n/a	1
294.591	0.500040369	COMMANDANT	lure	n/a	n/a	n/a	1
295.091	0.766609938	AUTOCRAT	lure	n/a	n/a	n/a	1
295.858	0.616656515	KARATE	lure	n/a	n/a	n/a	1
296.475	0.666658072	BALSAM	lure	n/a	n/a	n/a	1
297.141	0.583326055	WALLFLOWER	lure	n/a	n/a	n/a	1
297.725	0.449992616	FOOTPRINT	lure	n/a	n/a	n/a	1
298.175	0.566756202	UNTRUTH	lure	n/a	n/a	n/a	1
298.741	0.316563347	TRACER	lure	n/a	n/a	n/a	1
299.058	2.016638949	CRAYON	long	n/a	n/a	n/a	1
301.075	0.566658825	MUSK	lure	n/a	n/a	n/a	1
301.641	0.600239352	HANDSTAND	lure	n/a	n/a	n/a	1
302.241	0.416414259	BUGABOO	lure	n/a	n/a	n/a	1
302.658	0.416659023	STEELMAKER	lure	n/a	n/a	n/a	1
303.074	0.733320106	THRILLER	lure	n/a	n/a	n/a	1
303.808	0.733326485	GREEn/aOOM	lure	n/a	n/a	n/a	1
304.541	0.650618233	HEARTBURN	lure	n/a	n/a	n/a	1
305.192	0.749363184	RETINA	lure	n/a	n/a	n/a	1
305.941	0.616714851	PROPRIETY	lure	n/a	n/a	n/a	1
306.558	0.766598601	CARLOAD	lure	n/a	n/a	n/a	1
307.324	1.016701847	RASPBERRY	fruit	640	2	2	1
308.341	0.499943633	SURFER	lure	n/a	n/a	n/a	1
308.841	0.333326666	LABORATORY	lure	n/a	n/a	n/a	1
309.174	0.566661063	FORE	lure	n/a	n/a	n/a	1
309.741	0.566658403	CONCORD	lure	n/a	n/a	n/a	1
310.308	0.383327776	TENANCY	lure	n/a	n/a	n/a	1
310.691	0.449992	RENEGADE	lure	n/a	n/a	n/a	1
311.141	0.716657164	SPECIMEN	lure	n/a	n/a	n/a	1
311.858	0.333329238	ICECUBE	lure	n/a	n/a	n/a	1
312.191	0.683323408	INHUMANITY	lure	n/a	n/a	n/a	1
312.874	0.616657036	TABLECLOTH	lure	n/a	n/a	n/a	1
313.491	0.58332912	CONFETTI	lure	n/a	n/a	n/a	1
314.074	0.616651507	REFLECTION	lure	n/a	n/a	n/a	1
314.691	0.783326273	DIVORCEE	lure	n/a	n/a	n/a	1
315.474	0.733341728	AMMUNITION	lure	n/a	n/a	n/a	1
316.208	0.616636613	REGISTER	short	n/a	n/a	n/a	1
316.824	0.399995685	DISUNION	lure	n/a	n/a	n/a	1
317.224	0.399995617	GUESSWORK	lure	n/a	n/a	n/a	1
317.624	0.349995236	MOVER	lure	n/a	n/a	n/a	1
317.974	0.749983717	INSTRUMENT	lure	n/a	n/a	n/a	1
318.724	0.366667107	FISSION	lure	n/a	n/a	n/a	1
319.091	0.333326722	BOAT	lure	n/a	n/a	n/a	1
319.424	0.683323706	BOUT	lure	n/a	n/a	n/a	1
320.108	0.700054516	ARMLOAD	lure	n/a	n/a	n/a	1
320.808	0.499927597	SYNDROME	lure	n/a	n/a	n/a	1
321.308	0.450778359	GRAD	lure	n/a	n/a	n/a	1
321.758	0.665873107	TRAPPER	lure	n/a	n/a	n/a	1
322.424	0.583322106	AMBIANCE	lure	n/a	n/a	n/a	1
323.008	0.749993456	OINTMENT	lure	n/a	n/a	n/a	1
323.758	0.433372168	NARRATION	lure	n/a	n/a	n/a	1
324.191	0.649945466	INHIBITOR	lure	n/a	n/a	n/a	1
324.841	0.616659949	ARCTIC	short	n/a	n/a	n/a	1
325.458	0.483320651	FIANCEE	lure	n/a	n/a	n/a	1
325.941	0.633327574	SADDLEBAG	lure	n/a	n/a	n/a	1
326.574	0.550039123	TROUPE	lure	n/a	n/a	n/a	1
327.124	0.683277305	CURATOR	lure	n/a	n/a	n/a	1
327.807	0.399991641	HALTER	lure	n/a	n/a	n/a	1
328.207	0.502125984	STRATEGY	lure	n/a	n/a	n/a	1
328.71	0.481197565	WORKMEN	lure	n/a	n/a	n/a	1
329.191	0.449991975	BRAVADO	lure	n/a	n/a	n/a	1
329.641	0.73332399	RINGLEADER	lure	n/a	n/a	n/a	1
330.374	0.349995988	PARAKEET	lure	n/a	n/a	n/a	1
330.724	0.36665968	SOLILOQUY	lure	n/a	n/a	n/a	1
331.091	0.76665661	WOAD	lure	n/a	n/a	n/a	1
331.857	0.549992727	HUMANISM	lure	n/a	n/a	n/a	1
332.407	0.466658696	TABLEWARE	lure	n/a	n/a	n/a	1
332.874	0.61666277	PIN	short	n/a	n/a	n/a	1
333.491	0.399986001	EAR	lure	n/a	n/a	n/a	1
333.891	0.649996226	WARFARE	lure	n/a	n/a	n/a	1
334.541	0.316721241	CHARISMA	lure	n/a	n/a	n/a	1
334.857	0.417702927	BILLFOLD	lure	n/a	n/a	n/a	1
335.275	0.565556181	GASOLINE	lure	n/a	n/a	n/a	1
335.841	0.683324967	INVALIDITY	lure	n/a	n/a	n/a	1
336.524	0.649985823	CULTURE	lure	n/a	n/a	n/a	1
337.174	0.633327687	REEF	lure	n/a	n/a	n/a	1
337.807	0.56665894	LAYMEN	lure	n/a	n/a	n/a	1
338.374	0.516660554	ENSIGN	lure	n/a	n/a	n/a	1
338.891	0.450042121	DECATHLON	lure	n/a	n/a	n/a	1
339.341	0.549943879	FEE	lure	n/a	n/a	n/a	1
339.891	0.33332698	JUROR	lure	n/a	n/a	n/a	1
340.224	0.533384387	SOYBEAN	lure	n/a	n/a	n/a	1
340.757	0.616599329	VIRTUE	lure	n/a	n/a	n/a	1
341.374	2.016638666	FOAM	long	n/a	n/a	n/a	1
343.391	0.799987752	FORKLIFT	lure	n/a	n/a	n/a	1
344.191	0.733325595	DIMENSION	lure	n/a	n/a	n/a	1
344.924	0.349988959	FINDER	lure	n/a	n/a	n/a	1
345.274	0.433331652	DILIGENCE	lure	n/a	n/a	n/a	1
345.707	0.416721419	AISLE	lure	n/a	n/a	n/a	1
346.124	0.533266883	SOMBRERO	lure	n/a	n/a	n/a	1
346.657	0.699989856	CHAIRWOMAN	lure	n/a	n/a	n/a	1
347.357	0.333328922	OWL	lure	n/a	n/a	n/a	1
347.691	0.616702398	NIGHTIE	lure	n/a	n/a	n/a	1
348.307	0.516688043	GRAVY	lure	n/a	n/a	n/a	1
348.824	0.499918039	DOORSTEP	lure	n/a	n/a	n/a	1
349.324	2.016634496	BELT	long	n/a	n/a	n/a	1
351.34	0.516704539	SAWHORSE	lure	n/a	n/a	n/a	1
351.857	0.583281132	LIBATION	lure	n/a	n/a	n/a	1
352.44	0.449997396	RELEVANCE	lure	n/a	n/a	n/a	1
352.89	0.433326219	HERRING	lure	n/a	n/a	n/a	1
353.324	0.449990639	PARSLEY	lure	n/a	n/a	n/a	1
353.774	0.766658125	ASPHALT	lure	n/a	n/a	n/a	1
354.54	0.43332698	FACADE	lure	n/a	n/a	n/a	1
354.974	0.533326379	LINKAGE	lure	n/a	n/a	n/a	1
355.507	0.533325793	MANHOOD	lure	n/a	n/a	n/a	1
356.04	0.399991656	SUBHEADING	lure	n/a	n/a	n/a	1
356.44	0.633324081	UNDERLING	lure	n/a	n/a	n/a	1
357.074	0.400042456	SUBMISSION	lure	n/a	n/a	n/a	1
357.474	0.616615367	CHROME	short	n/a	n/a	n/a	1
358.09	0.350054235	DECORATION	lure	n/a	n/a	n/a	1
358.44	0.483265979	ACETONE	lure	n/a	n/a	n/a	1
358.924	0.599991616	JURY	lure	n/a	n/a	n/a	1
359.524	0.566765586	WATERMILL	lure	n/a	n/a	n/a	1
360.09	0.366550914	SPANGLE	lure	n/a	n/a	n/a	1
360.457	0.733325805	SURVEYOR	lure	n/a	n/a	n/a	1
361.19	0.333386867	JAG	lure	n/a	n/a	n/a	1
361.524	0.633264262	ELF	lure	n/a	n/a	n/a	1
362.157	0.333327317	EMBODIMENT	lure	n/a	n/a	n/a	1
362.49	0.533329468	CONDUCTOR	lure	n/a	n/a	n/a	1
363.024	0.733371006	ATTIRE	lure	n/a	n/a	n/a	1
363.757	0.699939231	RESIDENT	lure	n/a	n/a	n/a	1
364.457	0.683326046	EVILDOER	lure	n/a	n/a	n/a	1
365.14	0.699993467	SQUADRON	lure	n/a	n/a	n/a	1
365.84	0.61665718	MORNING	short	n/a	n/a	n/a	1
366.457	0.699985868	DATA	lure	n/a	n/a	n/a	1
367.157	0.733325204	BERK	lure	n/a	n/a	n/a	1
367.89	0.719627181	PURSUANCE	lure	n/a	n/a	n/a	1
368.61	0.430356109	MINUTEMEN	lure	n/a	n/a	n/a	1
369.04	0.433324383	EVOCATION	lure	n/a	n/a	n/a	1
369.474	0.583325207	SOFTY	lure	n/a	n/a	n/a	1
370.057	0.749993947	FOOTLIGHT	lure	n/a	n/a	n/a	1
370.807	0.633324888	TIDBIT	lure	n/a	n/a	n/a	1
371.44	0.366658691	MIXER	lure	n/a	n/a	n/a	1
371.807	0.616660206	SQUALL	lure	n/a	n/a	n/a	1
372.424	0.366659217	MUFFIN	lure	n/a	n/a	n/a	1
372.79	0.633366205	MAINLAND	lure	n/a	n/a	n/a	1
373.424	0.63328406	RAINDROP	lure	n/a	n/a	n/a	1
374.057	0.699983643	PROCTOR	lure	n/a	n/a	n/a	1
374.757	2.016645444	TRIPOD	long	n/a	n/a	n/a	1
376.773	0.716657056	OVERSPILL	lure	n/a	n/a	n/a	1
377.49	0.533324344	UNISON	lure	n/a	n/a	n/a	1
378.023	0.549991601	IVORY	lure	n/a	n/a	n/a	1
378.573	0.43332667	SWINDLER	lure	n/a	n/a	n/a	1
379.007	0.316660371	WASHBOARD	lure	n/a	n/a	n/a	1
379.323	0.534922096	FEEDBACK	lure	n/a	n/a	n/a	1
379.858	0.465059999	DENTIST	lure	n/a	n/a	n/a	1
380.323	0.683328441	GUNPLAY	lure	n/a	n/a	n/a	1
381.007	0.666658363	PRANKSTER	lure	n/a	n/a	n/a	1
381.673	0.51665952	SMASHER	lure	n/a	n/a	n/a	1
382.19	0.449992258	DAY	lure	n/a	n/a	n/a	1
382.64	0.716723207	CLOSURE	lure	n/a	n/a	n/a	1
383.357	2.016572661	APRON	long	n/a	n/a	n/a	1
385.373	0.616717029	STIMULI	lure	n/a	n/a	n/a	1
385.99	0.735124606	STOCKYARD	lure	n/a	n/a	n/a	1
386.725	0.781461001	HELICOPTER	lure	n/a	n/a	n/a	1
387.507	0.566660601	TRANSCRIPT	lure	n/a	n/a	n/a	1
388.073	0.633320848	TARIFF	lure	n/a	n/a	n/a	1
388.707	0.549995198	NEWSCAST	lure	n/a	n/a	n/a	1
389.257	0.383327087	CREDITOR	lure	n/a	n/a	n/a	1
389.64	0.549993619	JELLO	lure	n/a	n/a	n/a	1
390.19	0.433326567	BRUTALITY	lure	n/a	n/a	n/a	1
390.623	0.483324906	PARKWAY	lure	n/a	n/a	n/a	1
391.107	0.433326604	CLERIC	lure	n/a	n/a	n/a	1
391.54	2.016641135	PYRAMID	long	n/a	n/a	n/a	1
393.557	0.516656738	COD	lure	n/a	n/a	n/a	1
394.073	0.716657608	DOWNPOUR	lure	n/a	n/a	n/a	1
394.79	0.549990764	VISTA	lure	n/a	n/a	n/a	1
395.34	0.749991908	KITTY	lure	n/a	n/a	n/a	1
396.09	0.451900718	TOAD	lure	n/a	n/a	n/a	1
396.542	0.43146634	CONVERSION	lure	n/a	n/a	n/a	1
396.973	0.686668965	POOF	lure	n/a	n/a	n/a	1
397.66	0.646600328	DEBTOR	lure	n/a	n/a	n/a	1
398.306	0.599984828	EXALTATION	lure	n/a	n/a	n/a	1
398.906	0.35001701	SUBSPACE	lure	n/a	n/a	n/a	1
399.256	0.649972236	SEAT	short	n/a	n/a	n/a	1
399.906	0.483330498	BOATMEN	lure	n/a	n/a	n/a	1
400.39	0.73332059	PASTOR	lure	n/a	n/a	n/a	1
401.123	0.403680319	DEVOLUTION	lure	n/a	n/a	n/a	1
401.527	0.346308182	GALAXY	lure	n/a	n/a	n/a	1
401.873	0.38333008	COWGIRL	lure	n/a	n/a	n/a	1
402.256	0.616654638	FOLK	lure	n/a	n/a	n/a	1
402.873	0.533328759	PULLBACK	lure	n/a	n/a	n/a	1
403.406	0.716651024	RUNABOUT	lure	n/a	n/a	n/a	1
404.123	0.316662295	SPECTACLE	lure	n/a	n/a	n/a	1
404.44	0.75382206	MILL	lure	n/a	n/a	n/a	1
405.194	0.662827172	FIREMEN	lure	n/a	n/a	n/a	1
405.856	0.733323891	NEIGHBOR	lure	n/a	n/a	n/a	1
406.59	0.516659743	BROWNIE	lure	n/a	n/a	n/a	1
407.106	0.633325284	NECKWEAR	lure	n/a	n/a	n/a	1
407.74	2.016638156	LABEL	long	n/a	n/a	n/a	1
409.756	0.466704173	REMARRIAGE	lure	n/a	n/a	n/a	1
410.223	0.733280703	GIRLHOOD	lure	n/a	n/a	n/a	1
410.956	0.499989841	DABBLER	lure	n/a	n/a	n/a	1
411.456	0.750048241	WOODCARVER	lure	n/a	n/a	n/a	1
412.206	0.466600468	AMPLIFIER	lure	n/a	n/a	n/a	1
412.673	0.716706159	SEMESTER	lure	n/a	n/a	n/a	1
413.39	0.683276867	COLT	lure	n/a	n/a	n/a	1
414.073	0.333326218	ANKLET	lure	n/a	n/a	n/a	1
414.406	0.383326062	NAUGHT	lure	n/a	n/a	n/a	1
414.79	0.666661426	WALKER	lure	n/a	n/a	n/a	1
415.456	0.651498504	VERTIGO	lure	n/a	n/a	n/a	1
416.108	0.615147604	ARROW	short	n/a	n/a	n/a	1
416.723	0.583331845	CRUCIBLE	lure	n/a	n/a	n/a	1
417.306	0.599987282	DENIAL	lure	n/a	n/a	n/a	1
417.906	0.416658136	HALLWAY	lure	n/a	n/a	n/a	1
418.323	0.566713717	MACE	lure	n/a	n/a	n/a	1
418.89	0.54993794	SEIZURE	lure	n/a	n/a	n/a	1
419.44	0.749992298	ADVERT	lure	n/a	n/a	n/a	1
420.19	0.666657263	QUART	lure	n/a	n/a	n/a	1
420.856	0.616654361	POSTAGE	lure	n/a	n/a	n/a	1
421.473	0.316742977	LAUREL	lure	n/a	n/a	n/a	1
421.79	0.483247277	ADVISEMENT	lure	n/a	n/a	n/a	1
422.273	0.316705324	VOLUME	lure	n/a	n/a	n/a	1
422.59	0.349952405	MASCARA	lure	n/a	n/a	n/a	1
422.939	0.652308309	VALIDATION	lure	n/a	n/a	n/a	1
423.592	0.497784535	CITIZEN	lure	n/a	n/a	n/a	1
424.09	0.549884436	FIANCE	lure	n/a	n/a	n/a	1
424.639	1.016648679	PEACH	fruit	781	2	2	1
425.656	0.699988242	LINEN	lure	n/a	n/a	n/a	1
426.356	0.383327332	COPIER	lure	n/a	n/a	n/a	1
426.739	0.453494112	CORKSCREW	lure	n/a	n/a	n/a	1
427.193	0.729940548	ELECTOR	lure	n/a	n/a	n/a	1
427.923	0.666538426	BIRTHDAY	lure	n/a	n/a	n/a	1
428.589	0.399999352	MANTLE	lure	n/a	n/a	n/a	1
428.989	0.616652911	CUBIST	lure	n/a	n/a	n/a	1
429.606	0.533330933	FLASHBULB	lure	n/a	n/a	n/a	1
430.139	0.716651172	DOER	lure	n/a	n/a	n/a	1
430.856	0.349995976	REMNANT	lure	n/a	n/a	n/a	1
431.206	0.766658452	DRIVER	lure	n/a	n/a	n/a	1
431.973	0.616657936	CORDIALITY	lure	n/a	n/a	n/a	1
432.589	1.016652867	APPLE	fruit	951	2	2	1
433.606	0.416737876	GUILD	lure	n/a	n/a	n/a	1
434.023	0.566583671	DISBELIEF	lure	n/a	n/a	n/a	1
434.589	0.599988228	OCCUPATION	lure	n/a	n/a	n/a	1
435.189	0.516772458	SPANIEL	lure	n/a	n/a	n/a	1
435.706	0.683212937	ANCESTOR	lure	n/a	n/a	n/a	1
436.389	0.56665915	LOOPHOLE	lure	n/a	n/a	n/a	1
436.956	0.383330623	STATISTIC	lure	n/a	n/a	n/a	1
437.339	0.449990829	PROPAGANDA	lure	n/a	n/a	n/a	1
437.789	0.499992182	BONANZA	lure	n/a	n/a	n/a	1
438.289	0.750035274	PARTRIDGE	lure	n/a	n/a	n/a	1
439.039	0.333283636	IRRITATION	lure	n/a	n/a	n/a	1
439.373	0.533434968	ADORNMENT	lure	n/a	n/a	n/a	1
439.906	0.633211187	BUSTLE	lure	n/a	n/a	n/a	1
440.539	0.649992363	MAILMAN	lure	n/a	n/a	n/a	1
441.189	1.016745095	STRAWBERRY	fruit	712	2	2	1
442.206	0.34990619	NEUTRON	lure	n/a	n/a	n/a	1
442.556	0.333363355	WIT	lure	n/a	n/a	n/a	1
442.889	0.750011064	DUMPLING	lure	n/a	n/a	n/a	1
443.639	0.684574449	CRUELTY	lure	n/a	n/a	n/a	1
444.324	0.398684913	COMMUTER	lure	n/a	n/a	n/a	1
444.722	0.499992244	APPLICATOR	lure	n/a	n/a	n/a	1
445.222	0.716655707	ENCLOSURE	lure	n/a	n/a	n/a	1
445.939	0.533330305	STANDPOINT	lure	n/a	n/a	n/a	1
446.472	0.499987831	INFINITIVE	lure	n/a	n/a	n/a	1
446.972	0.5026863	PERFORMER	lure	n/a	n/a	n/a	1
447.475	0.530683812	PERMEATION	lure	n/a	n/a	n/a	1
448.006	0.35003537	ARRIVAL	lure	n/a	n/a	n/a	1
448.356	0.683235408	BLANKET	lure	n/a	n/a	n/a	1
449.039	0.59998824	LIGHTHOUSE	lure	n/a	n/a	n/a	1
449.639	0.616656913	MOUNTAIN	short	n/a	n/a	n/a	1
450.256	0.66670606	CHURCHMEN	lure	n/a	n/a	n/a	1
450.922	0.31661118	DUPLEX	lure	n/a	n/a	n/a	1
451.239	0.649992287	BATTLESHIP	lure	n/a	n/a	n/a	1
451.889	0.44999497	DIVER	lure	n/a	n/a	n/a	1
452.339	0.766658218	BANKER	lure	n/a	n/a	n/a	1
453.106	0.566711464	CHIVALRY	lure	n/a	n/a	n/a	1
453.672	0.649937857	DISPARITY	lure	n/a	n/a	n/a	1
454.322	0.538150229	REPRISAL	lure	n/a	n/a	n/a	1
454.861	0.345214648	SEDGE	lure	n/a	n/a	n/a	1
455.206	0.316679382	EAGLE	lure	n/a	n/a	n/a	1
455.522	0.616597096	IGLOO	lure	n/a	n/a	n/a	1
456.139	0.749984436	PILGRIM	lure	n/a	n/a	n/a	1
456.889	0.699995233	CARNIVORE	lure	n/a	n/a	n/a	1
457.589	0.785206156	NATION	lure	n/a	n/a	n/a	1
458.374	0.731439978	AUNTIE	lure	n/a	n/a	n/a	1
459.106	0.433325807	STUMPER	lure	n/a	n/a	n/a	1
459.539	0.616652968	EXPEDITION	lure	n/a	n/a	n/a	1
460.156	0.533331061	WEIRDO	lure	n/a	n/a	n/a	1
460.689	0.566657636	FATE	lure	n/a	n/a	n/a	1
461.256	0.749994359	APPARITION	lure	n/a	n/a	n/a	1
462.006	0.699987636	STARDUST	lure	n/a	n/a	n/a	1
462.706	0.499989671	CORRECTION	lure	n/a	n/a	n/a	1
463.206	0.516659765	LENDER	lure	n/a	n/a	n/a	1
463.722	0.516657707	SCAVENGER	lure	n/a	n/a	n/a	1
464.239	0.483387238	ANACONDA	lure	n/a	n/a	n/a	1
464.722	n/a	SHORTBREAD	lure	n/a	n/a	n/a	1