onset	duration	stim	cond	RT	resp	cresp	acc
4.04	0.331023448	UNDERLAY	lure	n/a	n/a	n/a	1
4.371	0.650032607	CHAIRMEN	lure	n/a	n/a	n/a	1
5.021	0.449997103	BELIEVER	lure	n/a	n/a	n/a	1
5.471	0.50002973	POND	lure	n/a	n/a	n/a	1
5.971	0.716575099	TALE	lure	n/a	n/a	n/a	1
6.688	0.549991662	INDUCEMENT	lure	n/a	n/a	n/a	1
7.238	0.749987128	WHACKER	lure	n/a	n/a	n/a	1
7.988	1.016648961	CRANBERRY	fruit	587	2	2	1
9.004	0.349997615	PEDIGREE	lure	n/a	n/a	n/a	1
9.354	0.550053416	DEFENDER	lure	n/a	n/a	n/a	1
9.904	0.633267249	CUTAWAY	lure	n/a	n/a	n/a	1
10.538	0.683322644	LUNG	lure	n/a	n/a	n/a	1
11.221	0.466659157	CONSCIENCE	lure	n/a	n/a	n/a	1
11.688	0.366660779	WOMANIZER	lure	n/a	n/a	n/a	1
12.054	0.733362878	CARTON	lure	n/a	n/a	n/a	1
12.788	0.64995212	PEACE	lure	n/a	n/a	n/a	1
13.438	0.350030493	BRAILLE	lure	n/a	n/a	n/a	1
13.788	0.733285838	COCKTAIL	lure	n/a	n/a	n/a	1
14.521	0.483326346	HANDSAW	lure	n/a	n/a	n/a	1
15.004	0.49999165	VAGABOND	lure	n/a	n/a	n/a	1
15.504	0.499994766	LANDLADY	lure	n/a	n/a	n/a	1
16.004	1.016654388	CHERRY	fruit	635	2	2	1
17.021	0.33332811	BARRACK	lure	n/a	n/a	n/a	1
17.354	0.649984637	SEDIMENT	lure	n/a	n/a	n/a	1
18.004	0.583330206	SCIENCE	lure	n/a	n/a	n/a	1
18.588	0.699988254	MORTAR	lure	n/a	n/a	n/a	1
19.288	0.649990687	AURA	lure	n/a	n/a	n/a	1
19.938	0.749989817	HANDMAID	lure	n/a	n/a	n/a	1
20.688	0.599987819	SIRLOIN	lure	n/a	n/a	n/a	1
21.288	0.34999828	REPORTER	lure	n/a	n/a	n/a	1
21.638	0.700096689	CHAMPAGNE	lure	n/a	n/a	n/a	1
22.338	0.333224716	BALLPLAYER	lure	n/a	n/a	n/a	1
22.671	0.683319424	FAUCET	lure	n/a	n/a	n/a	1
23.354	0.49999477	GUITARIST	lure	n/a	n/a	n/a	1
23.854	0.650048179	MARE	lure	n/a	n/a	n/a	1
24.504	0.616604843	ARROW	short	n/a	n/a	n/a	1
25.121	0.650035015	BATHROBE	lure	n/a	n/a	n/a	1
25.771	0.499941884	PRESTIGE	lure	n/a	n/a	n/a	1
26.271	0.633435218	DISHWATER	lure	n/a	n/a	n/a	1
26.904	0.733280515	GUERRILLA	lure	n/a	n/a	n/a	1
27.637	0.349977732	SEACOAST	lure	n/a	n/a	n/a	1
27.987	0.549944671	STRAW	lure	n/a	n/a	n/a	1
28.537	0.366661045	STEAMBOAT	lure	n/a	n/a	n/a	1
28.904	0.7499879	BACKDROP	lure	n/a	n/a	n/a	1
29.654	0.333389441	SONGBIRD	lure	n/a	n/a	n/a	1
29.987	0.649927931	TOUCHSTONE	lure	n/a	n/a	n/a	1
30.637	0.583329953	COPYBOOK	lure	n/a	n/a	n/a	1
31.221	0.33332999	RESURGENCE	lure	n/a	n/a	n/a	1
31.554	0.366659303	OBSERVANCE	lure	n/a	n/a	n/a	1
31.921	0.483379014	FRESHMAN	lure	n/a	n/a	n/a	1
32.404	0.716665503	SURGERY	lure	n/a	n/a	n/a	1
33.121	2.016579165	LABEL	long	n/a	n/a	n/a	1
35.137	0.683371137	PERIODICAL	lure	n/a	n/a	n/a	1
35.821	0.36661224	BRUNT	lure	n/a	n/a	n/a	1
36.187	0.699986578	SWEATSHOP	lure	n/a	n/a	n/a	1
36.887	0.699988104	NIGHT	lure	n/a	n/a	n/a	1
37.587	0.333375618	EARTHWORM	lure	n/a	n/a	n/a	1
37.921	0.64995027	HOUSEMAID	lure	n/a	n/a	n/a	1
38.571	0.416659519	MINESTRONE	lure	n/a	n/a	n/a	1
38.987	0.716656608	REVIVAL	lure	n/a	n/a	n/a	1
39.704	0.333326652	OPPRESSION	lure	n/a	n/a	n/a	1
40.037	0.433329692	LEOPARD	lure	n/a	n/a	n/a	1
40.471	0.749987158	MOUTHFUL	lure	n/a	n/a	n/a	1
41.221	0.566658186	ENCORE	lure	n/a	n/a	n/a	1
41.787	0.616662432	MOUNTAIN	short	n/a	n/a	n/a	1
42.404	0.399990697	WALLBOARD	lure	n/a	n/a	n/a	1
42.804	0.499991849	BEARSKIN	lure	n/a	n/a	n/a	1
43.304	0.533370582	DEVIANCY	lure	n/a	n/a	n/a	1
43.837	0.483284934	SESAME	lure	n/a	n/a	n/a	1
44.321	0.566655032	TACTIC	lure	n/a	n/a	n/a	1
44.887	0.350043157	WHIM	lure	n/a	n/a	n/a	1
45.237	0.666612624	CREEK	lure	n/a	n/a	n/a	1
45.904	0.716657501	LIMERICK	lure	n/a	n/a	n/a	1
46.62	0.733319584	MEANIE	lure	n/a	n/a	n/a	1
47.354	0.50064138	SPOTLIGHT	lure	n/a	n/a	n/a	1
47.854	0.349349925	OIL	lure	n/a	n/a	n/a	1
48.204	0.766654248	SNACK	lure	n/a	n/a	n/a	1
48.97	0.383330309	BREEDER	lure	n/a	n/a	n/a	1
49.354	0.516658708	PORTAL	lure	n/a	n/a	n/a	1
49.87	1.050084691	ORANGE	fruit	944	2	2	1
50.921	0.519050165	JET	lure	n/a	n/a	n/a	1
51.44	0.380837912	BILLBOARD	lure	n/a	n/a	n/a	1
51.82	0.616655969	POINTER	lure	n/a	n/a	n/a	1
52.437	0.449988463	QUEEN	lure	n/a	n/a	n/a	1
52.887	0.450000855	TRANSFER	lure	n/a	n/a	n/a	1
53.337	0.316657835	SPREE	lure	n/a	n/a	n/a	1
53.654	0.599996389	LOCKER	lure	n/a	n/a	n/a	1
54.254	0.399989986	STIGMATA	lure	n/a	n/a	n/a	1
54.654	0.551776855	DELUGE	lure	n/a	n/a	n/a	1
55.205	0.681538007	COUNTDOWN	lure	n/a	n/a	n/a	1
55.887	0.649992219	CRUTCH	lure	n/a	n/a	n/a	1
56.537	0.649992634	EMPIRICISM	lure	n/a	n/a	n/a	1
57.187	0.333326896	TYPHOON	lure	n/a	n/a	n/a	1
57.52	0.549991846	CAMPGROUND	lure	n/a	n/a	n/a	1
58.07	0.616661091	REGISTER	short	n/a	n/a	n/a	1
58.687	0.58332503	PRIMER	lure	n/a	n/a	n/a	1
59.27	0.533322065	OCCURRENCE	lure	n/a	n/a	n/a	1
59.804	0.74998722	NARCISSISM	lure	n/a	n/a	n/a	1
60.554	0.733325872	RIVER	lure	n/a	n/a	n/a	1
61.287	0.699991917	EXPLOSION	lure	n/a	n/a	n/a	1
61.987	0.516721757	HAWKER	lure	n/a	n/a	n/a	1
62.504	0.535641383	INSOLE	lure	n/a	n/a	n/a	1
63.039	0.64956764	GUSHER	lure	n/a	n/a	n/a	1
63.689	0.448038664	GOULASH	lure	n/a	n/a	n/a	1
64.137	0.566652521	SPECTRUM	lure	n/a	n/a	n/a	1
64.704	0.450000489	EARSHOT	lure	n/a	n/a	n/a	1
65.154	0.716705799	MANDOLIN	lure	n/a	n/a	n/a	1
65.87	0.666606822	HOSTAGE	lure	n/a	n/a	n/a	1
66.537	2.016639147	POLE	long	n/a	n/a	n/a	1
68.554	0.566705428	AIRLINER	lure	n/a	n/a	n/a	1
69.12	0.69994131	ASCETIC	lure	n/a	n/a	n/a	1
69.82	0.6833202	ASSISTANCE	lure	n/a	n/a	n/a	1
70.503	0.699996386	BRETHREN	lure	n/a	n/a	n/a	1
71.203	0.649987541	WINDSOCK	lure	n/a	n/a	n/a	1
71.853	0.600044373	MAGICIAN	lure	n/a	n/a	n/a	1
72.454	0.433277068	GUARDIAN	lure	n/a	n/a	n/a	1
72.887	0.749984701	CANNON	lure	n/a	n/a	n/a	1
73.637	0.683434502	THEFT	lure	n/a	n/a	n/a	1
74.32	0.435269542	FIREBOX	lure	n/a	n/a	n/a	1
74.755	0.664605949	ARCTIC	short	n/a	n/a	n/a	1
75.42	0.666658522	PIGMENT	lure	n/a	n/a	n/a	1
76.087	0.666658481	DIGNITY	lure	n/a	n/a	n/a	1
76.753	0.4666592	HEADGEAR	lure	n/a	n/a	n/a	1
77.22	0.699991287	HIKER	lure	n/a	n/a	n/a	1
77.92	0.3499922	In/aOAD	lure	n/a	n/a	n/a	1
78.27	0.549990186	RAMPAGE	lure	n/a	n/a	n/a	1
78.82	0.353917557	REVENUE	lure	n/a	n/a	n/a	1
79.174	0.663567899	EXTINCTION	lure	n/a	n/a	n/a	1
79.838	0.432542503	INFANTRY	lure	n/a	n/a	n/a	1
80.27	0.616611042	STRUDEL	lure	n/a	n/a	n/a	1
80.887	0.433324747	DRUNKARD	lure	n/a	n/a	n/a	1
81.32	0.749996361	PHILOSOPHY	lure	n/a	n/a	n/a	1
82.07	0.6999883	CORONET	lure	n/a	n/a	n/a	1
82.77	0.699991393	GUY	lure	n/a	n/a	n/a	1
83.47	2.016633362	COAT	long	n/a	n/a	n/a	1
85.487	0.599993666	CORONA	lure	n/a	n/a	n/a	1
86.087	0.666659098	SANDBANK	lure	n/a	n/a	n/a	1
86.753	0.349994336	CUPCAKE	lure	n/a	n/a	n/a	1
87.103	0.549990739	STALLION	lure	n/a	n/a	n/a	1
87.653	0.483374448	WINGER	lure	n/a	n/a	n/a	1
88.137	0.416615725	PERJURY	lure	n/a	n/a	n/a	1
88.553	0.568298482	DEADLINE	lure	n/a	n/a	n/a	1
89.122	0.315018486	NITWIT	lure	n/a	n/a	n/a	1
89.437	0.466662628	FAME	lure	n/a	n/a	n/a	1
89.903	0.516657968	WHISPERER	lure	n/a	n/a	n/a	1
90.42	0.433372481	BIRCH	lure	n/a	n/a	n/a	1
90.853	0.533328556	BASIL	lure	n/a	n/a	n/a	1
91.387	0.433279342	ENTITY	lure	n/a	n/a	n/a	1
91.82	1.016656862	CANTELOUPE	fruit	n/a	n/a	2	0
92.837	0.566652977	ORACLE	lure	74	2	n/a	0
93.403	0.416660627	SINGER	lure	n/a	n/a	n/a	1
93.82	0.449993512	MILITIA	lure	n/a	n/a	n/a	1
94.27	0.54999601	LETTER	lure	n/a	n/a	n/a	1
94.82	0.583417621	PUDDLE	lure	n/a	n/a	n/a	1
95.403	0.370540726	UNDERWEAR	lure	n/a	n/a	n/a	1
95.774	0.37935573	CRATE	lure	n/a	n/a	n/a	1
96.153	0.3666601	BLEMISH	lure	n/a	n/a	n/a	1
96.52	0.566705062	ROSARY	lure	n/a	n/a	n/a	1
97.086	0.516611567	WOODPECKER	lure	n/a	n/a	n/a	1
97.603	0.749989352	LOON	lure	n/a	n/a	n/a	1
98.353	0.766660013	BLOTCH	lure	n/a	n/a	n/a	1
99.12	0.683320657	ALDERMEN	lure	n/a	n/a	n/a	1
99.803	0.516661501	MYSTIQUE	lure	n/a	n/a	n/a	1
100.32	0.616657765	PIN	short	n/a	n/a	n/a	1
100.936	0.733322212	AUTOMATION	lure	n/a	n/a	n/a	1
101.67	0.749991898	ELECTRON	lure	n/a	n/a	n/a	1
102.42	0.454087371	COURTSHIP	lure	n/a	n/a	n/a	1
102.874	0.579226871	HEADWAY	lure	n/a	n/a	n/a	1
103.453	0.416664447	VIBRATION	lure	n/a	n/a	n/a	1
103.87	0.416657136	PUMPKIN	lure	n/a	n/a	n/a	1
104.286	0.466665157	RESPONDENT	lure	n/a	n/a	n/a	1
104.753	0.549982661	ANTICLIMAX	lure	n/a	n/a	n/a	1
105.303	0.416722726	MORROW	lure	n/a	n/a	n/a	1
105.72	0.333270882	MEDALLIST	lure	n/a	n/a	n/a	1
106.053	0.686716262	AMNESIA	lure	n/a	n/a	n/a	1
106.74	0.513265989	INTAKE	lure	n/a	n/a	n/a	1
107.253	0.483325821	ESCAPADE	lure	n/a	n/a	n/a	1
107.736	0.71672534	FRIDGE	lure	n/a	n/a	n/a	1
108.453	0.449929714	CAPTOR	lure	n/a	n/a	n/a	1
108.903	2.066634758	CRAYON	long	n/a	n/a	n/a	1
110.97	0.485598755	THIEVERY	lure	n/a	n/a	n/a	1
111.455	0.497724388	PRETENDER	lure	n/a	n/a	n/a	1
111.953	0.749985442	GUPPY	lure	n/a	n/a	n/a	1
112.703	0.499995998	SCREE	lure	n/a	n/a	n/a	1
113.203	0.699990508	BACKLOG	lure	n/a	n/a	n/a	1
113.903	0.316660572	CHILDHOOD	lure	n/a	n/a	n/a	1
114.22	0.683370358	WAND	lure	n/a	n/a	n/a	1
114.903	0.333327128	MARSUPIAL	lure	n/a	n/a	n/a	1
115.236	0.666605586	WILLPOWER	lure	n/a	n/a	n/a	1
115.903	0.649991798	HAIRPIECE	lure	n/a	n/a	n/a	1
116.553	0.583405525	HORROR	lure	n/a	n/a	n/a	1
117.136	0.716580099	INACCURACY	lure	n/a	n/a	n/a	1
117.853	0.616662257	CANDLE	short	n/a	n/a	n/a	1
118.469	0.533323437	RIFT	lure	n/a	n/a	n/a	1
119.003	0.533320549	CONSUMER	lure	n/a	n/a	n/a	1
119.536	0.36666537	CONFIDENCE	lure	n/a	n/a	n/a	1
119.903	0.566662188	FORESTRY	lure	n/a	n/a	n/a	1
120.469	0.666655487	WARE	lure	n/a	n/a	n/a	1
121.136	0.516657353	STOREHOUSE	lure	n/a	n/a	n/a	1
121.653	0.566654501	REFRESHER	lure	n/a	n/a	n/a	1
122.219	0.716664869	MATH	lure	n/a	n/a	n/a	1
122.936	0.399989104	INCURSION	lure	n/a	n/a	n/a	1
123.336	0.649993932	MAXIM	lure	n/a	n/a	n/a	1
123.986	0.366662543	MOUSTACHE	lure	n/a	n/a	n/a	1
124.353	0.599986631	PISTON	lure	n/a	n/a	n/a	1
124.953	0.699991591	MARIGOLD	lure	n/a	n/a	n/a	1
125.653	0.433330847	SPASM	lure	n/a	n/a	n/a	1
126.086	2.016633451	PYRAMID	long	n/a	n/a	n/a	1
128.103	0.716656412	DAYBED	lure	n/a	n/a	n/a	1
128.819	0.633322625	CUSTODIAN	lure	n/a	n/a	n/a	1
129.453	0.349999077	ASSURANCE	lure	n/a	n/a	n/a	1
129.803	0.58333833	DINER	lure	n/a	n/a	n/a	1
130.386	0.549979723	INSPECTOR	lure	n/a	n/a	n/a	1
130.936	0.43338513	BREAKER	lure	n/a	n/a	n/a	1
131.369	0.633267544	DOGMATISM	lure	n/a	n/a	n/a	1
132.003	0.633325542	MIDSHIP	lure	n/a	n/a	n/a	1
132.636	0.733321878	PORPOISE	lure	n/a	n/a	n/a	1
133.369	0.71665912	ORGANIST	lure	n/a	n/a	n/a	1
134.086	0.666652007	EXTRACTOR	lure	n/a	n/a	n/a	1
134.753	2.050021427	TRIPOD	long	n/a	n/a	n/a	1
136.803	0.316611566	SPECIALIST	lure	n/a	n/a	n/a	1
137.119	0.383327797	SHIRTWAIST	lure	n/a	n/a	n/a	1
137.503	0.483325957	BLOCKHEAD	lure	n/a	n/a	n/a	1
137.986	0.466661701	EMERGENCY	lure	n/a	n/a	n/a	1
138.453	0.716658462	POLYNOMIAL	lure	n/a	n/a	n/a	1
139.169	0.349990317	DANDRUFF	lure	n/a	n/a	n/a	1
139.519	0.616662245	ORDINANCE	lure	n/a	n/a	n/a	1
140.136	0.649990743	ANIMAL	lure	n/a	n/a	n/a	1
140.786	0.666655225	INFAMY	lure	n/a	n/a	n/a	1
141.452	0.733380638	ADHESION	lure	n/a	n/a	n/a	1
142.186	0.44993917	SANCTITY	lure	n/a	n/a	n/a	1
142.636	1.016837615	BLUEBERRY	fruit	643	2	2	1
143.653	0.633137333	TUNNEL	lure	n/a	n/a	n/a	1
144.286	0.499993204	JUNKIE	lure	n/a	n/a	n/a	1
144.786	0.333372368	SLINGER	lure	n/a	n/a	n/a	1
145.119	0.399950427	BEAUTY	lure	n/a	n/a	n/a	1
145.519	0.6333246	BOOSTER	lure	n/a	n/a	n/a	1
146.152	0.535497731	PERIPHERY	lure	n/a	n/a	n/a	1
146.688	0.381153291	HERMITAGE	lure	n/a	n/a	n/a	1
147.069	0.433325609	BRILLIANCE	lure	n/a	n/a	n/a	1
147.502	0.599994591	PROTEST	lure	n/a	n/a	n/a	1
148.102	0.749992747	DETERGENT	lure	n/a	n/a	n/a	1
148.852	0.383326515	FRIEND	lure	n/a	n/a	n/a	1
149.236	0.738102104	STATESMAN	lure	n/a	n/a	n/a	1
149.974	0.397564303	PREMIUM	lure	n/a	n/a	n/a	1
150.371	0.631570235	STORYBOOK	lure	n/a	n/a	n/a	1
151.003	0.616064327	MORNING	short	n/a	n/a	n/a	1
151.619	0.633320279	ULTIMATUM	lure	n/a	n/a	n/a	1
152.252	0.366663861	HENCHMEN	lure	n/a	n/a	n/a	1
152.619	0.349993774	SUGARLOAF	lure	n/a	n/a	n/a	1
152.969	0.649989858	REVELRY	lure	n/a	n/a	n/a	1
153.619	0.733326875	NIECE	lure	n/a	n/a	n/a	1
154.352	0.583323521	FLUTE	lure	n/a	n/a	n/a	1
154.936	0.399994081	SPEEDBOAT	lure	n/a	n/a	n/a	1
155.336	0.549989983	CESSATION	lure	n/a	n/a	n/a	1
155.886	0.449993606	SHAMROCK	lure	n/a	n/a	n/a	1
156.336	0.716658773	CAT	lure	n/a	n/a	n/a	1
157.052	0.383329247	DISMISSAL	lure	n/a	n/a	n/a	1
157.436	0.683320762	PROVINCE	lure	n/a	n/a	n/a	1
158.119	0.783383157	CAPRICE	lure	n/a	n/a	n/a	1
158.902	0.549988038	ASTHMA	lure	n/a	n/a	n/a	1
159.452	2.016586624	PICK	long	n/a	n/a	n/a	1
161.469	0.499986973	MOMMA	lure	n/a	n/a	n/a	1
161.969	0.699991198	RACEHORSE	lure	n/a	n/a	n/a	1
162.669	0.766657742	MILLIGRAM	lure	n/a	n/a	n/a	1
163.436	0.416659634	MATCHSTICK	lure	n/a	n/a	n/a	1
163.852	0.383385295	MEDITATION	lure	n/a	n/a	n/a	1
164.236	0.349940117	GOON	lure	n/a	n/a	n/a	1
164.585	0.466656361	AFTERGLOW	lure	n/a	n/a	n/a	1
165.052	0.749987883	JACKRABBIT	lure	n/a	n/a	n/a	1
165.802	0.333332759	ASYMMETRY	lure	n/a	n/a	n/a	1
166.135	0.483326768	INTRICACY	lure	n/a	n/a	n/a	1
166.619	0.449993344	FIESTA	lure	n/a	n/a	n/a	1
167.069	0.685868373	FATHERLAND	lure	n/a	n/a	n/a	1
167.755	2.014092561	BELT	long	n/a	n/a	n/a	1
169.769	0.666650116	PERSONA	lure	n/a	n/a	n/a	1
170.435	0.516664714	EXCAVATION	lure	n/a	n/a	n/a	1
170.952	0.733320847	ASTRONOMER	lure	n/a	n/a	n/a	1
171.685	0.566660963	OPENER	lure	n/a	n/a	n/a	1
172.252	0.666658163	MELODRAMA	lure	n/a	n/a	n/a	1
172.919	0.749991038	SHOWROOM	lure	n/a	n/a	n/a	1
173.669	0.61665554	PYTHON	lure	n/a	n/a	n/a	1
174.285	0.733325618	CANTEEN	lure	n/a	n/a	n/a	1
175.019	0.75006898	VEHICLE	lure	n/a	n/a	n/a	1
175.769	0.518970072	STANZA	lure	n/a	n/a	n/a	1
176.288	1.016576639	GOOSEBERRY	fruit	847	2	2	1
177.304	0.397771631	WARDEN	lure	n/a	n/a	n/a	1
177.702	0.333238003	BLIZZARD	lure	n/a	n/a	n/a	1
178.035	0.683321536	BAKER	lure	n/a	n/a	n/a	1
178.719	0.76665279	SCORCHER	lure	n/a	n/a	n/a	1
179.485	0.733324226	LEXICON	lure	n/a	n/a	n/a	1
180.219	0.750074279	GENTLEMEN	lure	n/a	n/a	n/a	1
180.969	0.499906593	LAWN	lure	n/a	n/a	n/a	1
181.469	0.366708741	GRANDSTAND	lure	n/a	n/a	n/a	1
181.835	0.566689944	BONDSMAN	lure	n/a	n/a	n/a	1
182.402	0.566579358	FOWLER	lure	n/a	n/a	n/a	1
182.969	0.499996831	NEWSSTAND	lure	n/a	n/a	n/a	1
183.469	0.599990881	SPRAYER	lure	n/a	n/a	n/a	1
184.069	0.701105906	ARROWHEAD	lure	n/a	n/a	n/a	1
184.77	2.04892617	APRON	long	n/a	n/a	n/a	1
186.819	0.483250023	BABYHOOD	lure	n/a	n/a	n/a	1
187.302	0.366668557	WATT	lure	n/a	n/a	n/a	1
187.669	0.466740886	OVERFLOW	lure	n/a	n/a	n/a	1
188.135	0.633241309	IDEALIST	lure	n/a	n/a	n/a	1
188.768	0.416662588	COMA	lure	n/a	n/a	n/a	1
189.185	0.483325397	LOVER	lure	n/a	n/a	n/a	1
189.668	0.333327649	OPTIMALITY	lure	n/a	n/a	n/a	1
190.002	0.553522293	MANNERISM	lure	n/a	n/a	n/a	1
190.555	0.646511219	BECK	lure	n/a	n/a	n/a	1
191.202	0.599940706	HUNTER	lure	n/a	n/a	n/a	1
191.802	0.383328086	WASHCLOTH	lure	n/a	n/a	n/a	1
192.185	0.416663354	CEREMONY	lure	n/a	n/a	n/a	1
192.602	0.583360075	LYRE	lure	n/a	n/a	n/a	1
193.185	0.616622637	SEAT	short	n/a	n/a	n/a	1
193.802	0.666658782	ROOFTOP	lure	n/a	n/a	n/a	1
194.468	0.399992513	MARTINI	lure	n/a	n/a	n/a	1
194.868	0.499993251	ALLOCATION	lure	n/a	n/a	n/a	1
195.368	0.533322988	OXEN	lure	n/a	n/a	n/a	1
195.902	0.333331875	GAINER	lure	n/a	n/a	n/a	1
196.235	0.800048062	PERMANENCE	lure	n/a	n/a	n/a	1
197.035	0.583322461	RECOMPENSE	lure	n/a	n/a	n/a	1
197.618	0.749930679	BLACKSMITH	lure	n/a	n/a	n/a	1
198.368	0.533377575	ROUNDUP	lure	n/a	n/a	n/a	1
198.902	0.633268206	ADRENALIN	lure	n/a	n/a	n/a	1
199.535	0.483326449	HYENA	lure	n/a	n/a	n/a	1
200.018	0.400065809	FEDERATION	lure	n/a	n/a	n/a	1
200.418	0.616635332	BUTTERNUT	lure	n/a	n/a	n/a	1
201.035	0.633680694	FORGERY	lure	n/a	n/a	n/a	1
201.669	0.616256422	PISTOL	short	n/a	n/a	n/a	1
202.285	0.499994516	GALLUP	lure	n/a	n/a	n/a	1
202.785	0.350040842	CHECKOUT	lure	n/a	n/a	n/a	1
203.135	0.666610246	METEORITE	lure	n/a	n/a	n/a	1
203.802	0.649988875	LIPSTICK	lure	n/a	n/a	n/a	1
204.452	0.499996442	FROSTBITE	lure	n/a	n/a	n/a	1
204.952	0.583324227	TENDRIL	lure	n/a	n/a	n/a	1
205.535	0.633327219	CARDIGAN	lure	n/a	n/a	n/a	1
206.168	0.633321535	SEQUIN	lure	n/a	n/a	n/a	1
206.802	0.633326865	TRAGEDY	lure	n/a	n/a	n/a	1
207.435	0.599993255	VOLLEYBALL	lure	n/a	n/a	n/a	1
208.035	0.749985948	BASKETWORK	lure	n/a	n/a	n/a	1
208.785	0.516660815	MINNOW	lure	n/a	n/a	n/a	1
209.302	0.699989746	PERCUSSION	lure	n/a	n/a	n/a	1
210.002	0.616659277	CHROME	short	n/a	n/a	n/a	1
210.618	0.483445398	AFTERSHAVE	lure	n/a	n/a	n/a	1
211.102	0.666535725	STEPSISTER	lure	n/a	n/a	n/a	1
211.768	0.399995561	AEROSPACE	lure	n/a	n/a	n/a	1
212.168	0.316709221	CHOLERA	lure	n/a	n/a	n/a	1
212.485	0.749937692	CHINAWARE	lure	n/a	n/a	n/a	1
213.235	0.316661161	SPEEDWAY	lure	n/a	n/a	n/a	1
213.551	0.566660591	TOURIST	lure	n/a	n/a	n/a	1
214.118	0.399999134	DAIQUIRI	lure	n/a	n/a	n/a	1
214.518	0.416657502	CZAR	lure	n/a	n/a	n/a	1
214.935	0.533327452	TANG	lure	n/a	n/a	n/a	1
215.468	0.566658566	BARRAGE	lure	n/a	n/a	n/a	1
216.035	0.533319	KNUCKLE	lure	n/a	n/a	n/a	1
216.568	0.749996906	VOODOO	lure	n/a	n/a	n/a	1
217.318	0.587326055	MIGRAINE	lure	n/a	n/a	n/a	1
217.905	2.014595999	FOAM	long	n/a	n/a	n/a	1
219.92	0.698143513	JAILBREAK	lure	n/a	n/a	n/a	1
220.618	0.76660088	VENGEANCE	lure	n/a	n/a	n/a	1
221.385	0.483267778	APPENDIX	lure	n/a	n/a	n/a	1
221.868	0.733321683	HENCHMAN	lure	n/a	n/a	n/a	1
222.601	0.749992782	CLIENTELE	lure	n/a	n/a	n/a	1
223.351	0.616657272	MOLESKIN	lure	n/a	n/a	n/a	1
223.968	0.433325068	WHISTLE	lure	n/a	n/a	n/a	1
224.401	0.416730001	CELLIST	lure	n/a	n/a	n/a	1
224.818	0.566584252	PRECISION	lure	n/a	n/a	n/a	1
225.385	0.416668565	PARABOLA	lure	n/a	n/a	n/a	1
225.801	0.483329275	IRONSIDE	lure	n/a	n/a	n/a	1
226.285	0.502894741	HONEYCOMB	lure	n/a	n/a	n/a	1
226.788	n/a	REVERSION	lure	n/a	n/a	n/a	1
238.018	0.433327591	MISTER	lure	n/a	n/a	n/a	1
238.451	0.666658823	GAZETTE	lure	n/a	n/a	n/a	1
239.118	0.63332404	BRICKLAYER	lure	n/a	n/a	n/a	1
239.751	0.700122676	LIFELINE	lure	n/a	n/a	n/a	1
240.451	0.383193967	EDUCATOR	lure	n/a	n/a	n/a	1
240.834	0.383330206	ALLOTMENT	lure	n/a	n/a	n/a	1
241.218	1.016713348	CRANBERRY	fruit	653	2	2	1
242.234	0.51659846	NEPHEW	lure	n/a	n/a	n/a	1
242.751	0.616718585	WORKER	lure	n/a	n/a	n/a	1
243.368	0.433264905	NATURALISM	lure	n/a	n/a	n/a	1
243.801	0.533326685	HUMILITY	lure	n/a	n/a	n/a	1
244.334	0.349995769	DEFEATISM	lure	n/a	n/a	n/a	1
244.684	0.387523438	THEW	lure	n/a	n/a	n/a	1
245.072	0.462462821	SHREDDER	lure	n/a	n/a	n/a	1
245.534	0.549991862	PURITY	lure	n/a	n/a	n/a	1
246.084	0.683322816	SUFFERER	lure	n/a	n/a	n/a	1
246.768	0.583323047	LEADERSHIP	lure	n/a	n/a	n/a	1
247.351	0.549993469	TURBAN	lure	n/a	n/a	n/a	1
247.901	0.566663707	EPICENTER	lure	n/a	n/a	n/a	1
248.468	0.633317855	PRINCIPLE	lure	n/a	n/a	n/a	1
249.101	0.399997545	CRACKPOT	lure	n/a	n/a	n/a	1
249.501	0.61666168	MOUNTAIN	short	n/a	n/a	n/a	1
250.118	0.733321445	SILENCER	lure	n/a	n/a	n/a	1
250.851	0.416656227	FEDERALISM	lure	n/a	n/a	n/a	1
251.268	0.649993927	FOOTSTEP	lure	n/a	n/a	n/a	1
251.918	0.516660093	NARCISSIST	lure	n/a	n/a	n/a	1
252.434	0.499992112	PATHFINDER	lure	n/a	n/a	n/a	1
252.934	0.616721269	GANGWAY	lure	n/a	n/a	n/a	1
253.551	0.683261598	STUPIDITY	lure	n/a	n/a	n/a	1
254.234	0.771087723	FROGMAN	lure	n/a	n/a	n/a	1
255.005	0.545557701	CAB	lure	n/a	n/a	n/a	1
255.551	0.316663885	SATIN	lure	n/a	n/a	n/a	1
255.868	0.40005562	CAROUSEL	lure	n/a	n/a	n/a	1
256.268	0.599930806	VALIDITY	lure	n/a	n/a	n/a	1
256.868	0.583319524	CONDOLENCE	lure	n/a	n/a	n/a	1
257.451	0.333332325	AUTHORITY	lure	n/a	n/a	n/a	1
257.784	0.616658347	PIN	short	n/a	n/a	n/a	1
258.401	0.399994019	UPSWING	lure	n/a	n/a	n/a	1
258.801	0.683325872	EQUINOX	lure	n/a	n/a	n/a	1
259.484	0.833379056	LYMPH	lure	n/a	n/a	n/a	1
260.318	0.68682495	ENTRY	lure	n/a	n/a	n/a	1
261.004	0.381561447	REPLAY	lure	n/a	n/a	n/a	1
261.386	0.601568701	TORQUE	lure	n/a	n/a	n/a	1
261.987	0.329959363	MONGOOSE	lure	n/a	n/a	n/a	1
262.317	0.68816904	FLINT	lure	n/a	n/a	n/a	1
263.006	0.645145925	GRENADE	lure	n/a	n/a	n/a	1
263.651	0.53332394	ASH	lure	n/a	n/a	n/a	1
264.184	0.616659746	POETRY	lure	n/a	n/a	n/a	1
264.801	0.383373886	INCUBATION	lure	n/a	n/a	n/a	1
265.184	0.583275731	CLOSEOUT	lure	n/a	n/a	n/a	1
265.767	0.383328909	REPERTORY	lure	n/a	n/a	n/a	1
266.151	2.016639179	APRON	long	n/a	n/a	n/a	1
268.167	0.66665792	SKYWAY	lure	n/a	n/a	n/a	1
268.834	0.616651688	CASEWORK	lure	n/a	n/a	n/a	1
269.451	0.549999679	SPACECRAFT	lure	n/a	n/a	n/a	1
270.001	0.499991656	BLOWTORCH	lure	n/a	n/a	n/a	1
270.501	0.366660397	GRANDMA	lure	n/a	n/a	n/a	1
270.867	0.416656932	BISQUE	lure	n/a	n/a	n/a	1
271.284	0.749992796	SETTLEMENT	lure	n/a	n/a	n/a	1
272.034	0.783317173	AIRFORCE	lure	n/a	n/a	n/a	1
272.817	0.499998503	TRADITION	lure	n/a	n/a	n/a	1
273.317	0.616660013	MADWOMAN	lure	n/a	n/a	n/a	1
273.934	0.751838264	LEGUME	lure	n/a	n/a	n/a	1
274.686	1.016575596	GRAPE	fruit	889	2	2	1
275.702	0.731549738	REFERENCE	lure	n/a	n/a	n/a	1
276.434	0.5167197	CHARITY	lure	n/a	n/a	n/a	1
276.951	0.699928265	VELOCITY	lure	n/a	n/a	n/a	1
277.651	0.349994112	SUn/aOOF	lure	n/a	n/a	n/a	1
278.001	0.566659489	GEOGRAPHY	lure	n/a	n/a	n/a	1
278.567	0.683323598	INDICATION	lure	n/a	n/a	n/a	1
279.251	0.349997318	MEADOW	lure	n/a	n/a	n/a	1
279.601	0.533323602	ETHYL	lure	n/a	n/a	n/a	1
280.134	0.399995031	WATCHTOWER	lure	n/a	n/a	n/a	1
280.534	0.399989273	SOMERSET	lure	n/a	n/a	n/a	1
280.934	0.499997509	FOOTPAD	lure	n/a	n/a	n/a	1
281.434	0.533326058	FAMINE	lure	n/a	n/a	n/a	1
281.967	0.74998578	CERVIX	lure	n/a	n/a	n/a	1
282.717	0.333332566	VIEWPOINT	lure	n/a	n/a	n/a	1
283.05	2.016696444	COAT	long	n/a	n/a	n/a	1
285.067	0.383268284	VENTRICLE	lure	n/a	n/a	n/a	1
285.45	0.699988242	SPOKESMAN	lure	n/a	n/a	n/a	1
286.15	0.416660542	SUNFISH	lure	n/a	n/a	n/a	1
286.567	0.516663786	PARCHMENT	lure	n/a	n/a	n/a	1
287.084	0.583385871	NOTHING	lure	n/a	n/a	n/a	1
287.667	0.716596144	BACKSTROKE	lure	n/a	n/a	n/a	1
288.384	0.650050224	ICICLE	lure	n/a	n/a	n/a	1
289.034	0.666593559	CONFUSION	lure	n/a	n/a	n/a	1
289.7	0.716706903	DETONATION	lure	n/a	n/a	n/a	1
290.417	0.533321347	NUB	lure	n/a	n/a	n/a	1
290.95	0.383283775	HEARTTHROB	lure	n/a	n/a	n/a	1
291.334	2.016636509	CRAYON	long	n/a	n/a	n/a	1
293.35	0.449996052	FREEZER	lure	n/a	n/a	n/a	1
293.8	0.599992844	TRUNK	lure	n/a	n/a	n/a	1
294.4	0.383323024	CONVEYANCE	lure	n/a	n/a	n/a	1
294.784	0.750041018	DISTURBER	lure	n/a	n/a	n/a	1
295.534	0.499945219	SEAHORSE	lure	n/a	n/a	n/a	1
296.034	0.683360011	NEWSROOM	lure	n/a	n/a	n/a	1
296.717	0.583289933	MERIDIAN	lure	n/a	n/a	n/a	1
297.3	0.316662296	LACKEY	lure	n/a	n/a	n/a	1
297.617	0.766716236	SHAKEDOWN	lure	n/a	n/a	n/a	1
298.384	0.616596437	REBEL	lure	n/a	n/a	n/a	1
299	0.433323065	EMPIRE	lure	n/a	n/a	n/a	1
299.434	1.016657318	PEAR	fruit	917	2	2	1
300.45	0.59998848	SCRAPBOOK	lure	n/a	n/a	n/a	1
301.05	0.616658999	SHRUBBERY	lure	n/a	n/a	n/a	1
301.667	0.733324986	EYESIGHT	lure	n/a	n/a	n/a	1
302.4	0.63332368	REVELATION	lure	n/a	n/a	n/a	1
303.034	0.399989537	THISTLE	lure	n/a	n/a	n/a	1
303.434	0.366661301	VIOLINIST	lure	n/a	n/a	n/a	1
303.8	0.466663159	TOPSIDE	lure	n/a	n/a	n/a	1
304.267	0.499999114	POWERBOAT	lure	n/a	n/a	n/a	1
304.767	0.633320833	APOTHECARY	lure	n/a	n/a	n/a	1
305.4	0.566657659	LATCH	lure	n/a	n/a	n/a	1
305.967	0.666657243	GOATEE	lure	n/a	n/a	n/a	1
306.633	0.516704437	DONOR	lure	n/a	n/a	n/a	1
307.15	0.549943857	CYCLIST	lure	n/a	n/a	n/a	1
307.7	0.6166626	ARCTIC	short	n/a	n/a	n/a	1
308.317	0.483326405	FRIAR	lure	n/a	n/a	n/a	1
308.8	0.449992867	FAIRYTALE	lure	n/a	n/a	n/a	1
309.25	1.049984332	EDDY	lure	n/a	n/a	n/a	1
310.3	0.583325809	VITALISM	lure	n/a	n/a	n/a	1
310.883	0.383328851	SILO	lure	n/a	n/a	n/a	1
311.267	0.416659086	LAD	lure	n/a	n/a	n/a	1
311.683	0.733322861	TEACUP	lure	n/a	n/a	n/a	1
312.417	0.333331556	PICKUP	lure	n/a	n/a	n/a	1
312.75	0.649988364	BOY	lure	n/a	n/a	n/a	1
313.4	0.349995471	DETECTIVE	lure	n/a	n/a	n/a	1
313.75	0.499992134	CHOPSTICK	lure	n/a	n/a	n/a	1
314.25	0.416657622	ARMHOLE	lure	n/a	n/a	n/a	1
314.667	0.399997808	DADDY	lure	n/a	n/a	n/a	1
315.067	0.633325517	PRETENSE	lure	n/a	n/a	n/a	1
315.7	0.449989366	PAVEMENT	lure	n/a	n/a	n/a	1
316.15	2.016638232	PYRAMID	long	n/a	n/a	n/a	1
318.167	0.71666223	ANTONYM	lure	n/a	n/a	n/a	1
318.883	0.449991085	YOGA	lure	n/a	n/a	n/a	1
319.333	0.36666242	MONOPOLY	lure	n/a	n/a	n/a	1
319.7	0.599992069	PERCENTAGE	lure	n/a	n/a	n/a	1
320.3	0.466659882	LUGGAGE	lure	n/a	n/a	n/a	1
320.767	0.699988891	STEPCHILD	lure	n/a	n/a	n/a	1
321.467	0.683323062	POTTERY	lure	n/a	n/a	n/a	1
322.15	0.59999318	WOODYARD	lure	n/a	n/a	n/a	1
322.75	0.716651101	COHERENCY	lure	n/a	n/a	n/a	1
323.467	0.59999542	TROOPER	lure	n/a	n/a	n/a	1
324.067	0.366660917	EEL	lure	n/a	n/a	n/a	1
324.433	0.616659517	ARROW	short	n/a	n/a	n/a	1
325.05	0.516653569	SUCROSE	lure	n/a	n/a	n/a	1
325.567	0.399999586	TENEMENT	lure	n/a	n/a	n/a	1
325.967	0.633382414	TRIBESMAN	lure	n/a	n/a	n/a	1
326.6	0.716598794	FINANCIER	lure	n/a	n/a	n/a	1
327.317	0.683322944	COPYWRITER	lure	n/a	n/a	n/a	1
328	0.700050646	CONFIDANT	lure	n/a	n/a	n/a	1
328.7	0.583265505	BYWAY	lure	n/a	n/a	n/a	1
329.283	0.400033296	DALE	lure	n/a	n/a	n/a	1
329.683	0.666677984	DIALECTIC	lure	n/a	n/a	n/a	1
330.35	0.39993272	BEET	lure	n/a	n/a	n/a	1
330.75	0.500077888	INSTINCT	lure	n/a	n/a	n/a	1
331.25	0.702398862	COLONY	lure	n/a	n/a	n/a	1
331.952	0.63262874	AGILITY	lure	n/a	n/a	n/a	1
332.585	0.614922041	REGISTER	short	n/a	n/a	n/a	1
333.2	0.599930089	SERVER	lure	n/a	n/a	n/a	1
333.8	0.433327995	HUMANKIND	lure	n/a	n/a	n/a	1
334.233	0.54999265	BIGOT	lure	n/a	n/a	n/a	1
334.783	0.499992943	MEMO	lure	n/a	n/a	n/a	1
335.283	0.533366377	ANTAGONIST	lure	n/a	n/a	n/a	1
335.816	0.483369512	AGENT	lure	n/a	n/a	n/a	1
336.3	0.333244697	NUMEROLOGY	lure	n/a	n/a	n/a	1
336.633	0.449988387	BRAWN	lure	n/a	n/a	n/a	1
337.083	0.649997235	EGGPLANT	lure	n/a	n/a	n/a	1
337.733	0.483325618	JUSTICE	lure	n/a	n/a	n/a	1
338.216	0.749989058	AEROPLANE	lure	n/a	n/a	n/a	1
338.966	0.699992398	POTTER	lure	n/a	n/a	n/a	1
339.666	0.58332233	POPULISM	lure	n/a	n/a	n/a	1
340.25	0.366656903	CATTLE	lure	n/a	n/a	n/a	1
340.616	0.616662616	PISTOL	short	n/a	n/a	n/a	1
341.233	0.566655261	VIAL	lure	n/a	n/a	n/a	1
341.8	0.583375132	PLAYGROUP	lure	n/a	n/a	n/a	1
342.383	0.550060526	FAREWELL	lure	n/a	n/a	n/a	1
342.933	0.687926141	LOTTO	lure	n/a	n/a	n/a	1
343.621	0.76194222	CHIVE	lure	n/a	n/a	n/a	1
344.383	0.433319945	FLUENCY	lure	n/a	n/a	n/a	1
344.816	0.366668959	TUGBOAT	lure	n/a	n/a	n/a	1
345.183	0.716649187	BAMBINO	lure	n/a	n/a	n/a	1
345.9	0.683324576	ASTRODOME	lure	n/a	n/a	n/a	1
346.583	0.499994476	STICKLER	lure	n/a	n/a	n/a	1
347.083	0.538010289	TIGER	lure	n/a	n/a	n/a	1
347.621	0.34531658	SAWMILL	lure	n/a	n/a	n/a	1
347.966	0.566700949	INFORMANT	lure	n/a	n/a	n/a	1
348.533	0.666608236	BRICKYARD	lure	n/a	n/a	n/a	1
349.2	2.016643388	LABEL	long	n/a	n/a	n/a	1
351.216	0.433325877	ACCURACY	lure	n/a	n/a	n/a	1
351.65	0.350040847	PACESETTER	lure	n/a	n/a	n/a	1
352	0.416611934	ENLISTMENT	lure	n/a	n/a	n/a	1
352.416	0.599994634	UNIVERSITY	lure	n/a	n/a	n/a	1
353.016	0.616654995	VANITY	lure	n/a	n/a	n/a	1
353.633	0.549991601	TORNADO	lure	n/a	n/a	n/a	1
354.183	0.549995293	STERNUM	lure	n/a	n/a	n/a	1
354.733	0.416659504	SPRINGTIME	lure	n/a	n/a	n/a	1
355.149	0.43337966	CRIMP	lure	n/a	n/a	n/a	1
355.583	0.46660842	BURGLARY	lure	n/a	n/a	n/a	1
356.049	0.399992272	CHIFFON	lure	n/a	n/a	n/a	1
356.449	0.733320249	SLEIGH	lure	n/a	n/a	n/a	1
357.183	0.716662485	WINGMAN	lure	n/a	n/a	n/a	1
357.899	2.01664136	PICK	long	n/a	n/a	n/a	1
359.916	0.383324616	ACTOR	lure	n/a	n/a	n/a	1
360.299	0.383327911	COMMITTEE	lure	n/a	n/a	n/a	1
360.683	0.716656525	PAINTBOX	lure	n/a	n/a	n/a	1
361.399	0.38332158	NEWSMEN	lure	n/a	n/a	n/a	1
361.783	0.566666682	FOLIAGE	lure	n/a	n/a	n/a	1
362.349	0.733388081	SUBSOIL	lure	n/a	n/a	n/a	1
363.083	0.584746543	WITCH	lure	n/a	n/a	n/a	1
363.668	0.448505714	HOLLY	lure	n/a	n/a	n/a	1
364.116	0.599991646	OBSERVER	lure	n/a	n/a	n/a	1
364.716	0.549993308	PENTAGON	lure	n/a	n/a	n/a	1
365.266	0.533324274	BRAZIER	lure	n/a	n/a	n/a	1
365.799	0.449994073	POTHOLE	lure	n/a	n/a	n/a	1
366.249	1.017317756	GRAPE	fruit	950	2	2	1
367.267	0.566029559	SHEATH	lure	n/a	n/a	n/a	1
367.833	0.516621602	TRAVELER	lure	n/a	n/a	n/a	1
368.349	0.566710423	DOORWAY	lure	n/a	n/a	n/a	1
368.916	0.749934392	FORMALITY	lure	n/a	n/a	n/a	1
369.666	0.5499989	BEACHHEAD	lure	n/a	n/a	n/a	1
370.216	0.366748689	BARBARISM	lure	n/a	n/a	n/a	1
370.583	0.466615783	SUSPICION	lure	n/a	n/a	n/a	1
371.049	0.69994314	CUPFUL	lure	n/a	n/a	n/a	1
371.749	0.466658865	DOMINANCE	lure	n/a	n/a	n/a	1
372.216	0.416665721	LEFTHANDER	lure	n/a	n/a	n/a	1
372.633	0.666658414	PIGPEN	lure	n/a	n/a	n/a	1
373.299	0.516654427	HARLEQUIN	lure	n/a	n/a	n/a	1
373.816	0.416658064	SPORTSMEN	lure	n/a	n/a	n/a	1
374.233	0.749990857	DEMOCRACY	lure	n/a	n/a	n/a	1
374.983	2.016644129	BELT	long	n/a	n/a	n/a	1
376.999	0.666657817	SHOWDOWN	lure	n/a	n/a	n/a	1
377.666	0.416657446	PONE	lure	n/a	n/a	n/a	1
378.082	0.333388182	AIRLINE	lure	n/a	n/a	n/a	1
378.416	0.616594073	VIRILITY	lure	n/a	n/a	n/a	1
379.032	0.749992535	INSIDER	lure	n/a	n/a	n/a	1
379.782	0.433535726	HUMPBACK	lure	n/a	n/a	n/a	1
380.216	0.716522899	COLLISION	lure	n/a	n/a	n/a	1
380.933	0.349917076	ETIQUETTE	lure	n/a	n/a	n/a	1
381.282	0.783385418	IMPRESSION	lure	n/a	n/a	n/a	1
382.066	0.616661141	TRANSPLANT	lure	n/a	n/a	n/a	1
382.682	0.483311701	BLASPHEMY	lure	n/a	n/a	n/a	1
383.166	1.01665865	ORANGE	fruit	833	2	2	1
384.182	0.583314369	SPITE	lure	n/a	n/a	n/a	1
384.766	0.350011428	LEATHER	lure	n/a	n/a	n/a	1
385.116	0.433265679	METEOR	lure	n/a	n/a	n/a	1
385.549	0.466712895	TELETYPE	lure	n/a	n/a	n/a	1
386.016	0.366607362	MATINEE	lure	n/a	n/a	n/a	1
386.382	0.399998986	PANDA	lure	n/a	n/a	n/a	1
386.782	0.783317855	BACON	lure	n/a	n/a	n/a	1
387.566	0.466662844	WOODCOCK	lure	n/a	n/a	n/a	1
388.032	0.399993281	SPECULATOR	lure	n/a	n/a	n/a	1
388.432	0.483657809	NOMINEE	lure	n/a	n/a	n/a	1
388.916	0.66632296	ALLEGORY	lure	n/a	n/a	n/a	1
389.582	0.733326823	GODSON	lure	n/a	n/a	n/a	1
390.316	0.400038653	COLONEL	lure	n/a	n/a	n/a	1
390.716	0.349950217	BEDSPREAD	lure	n/a	n/a	n/a	1
391.066	2.016637255	POLE	long	n/a	n/a	n/a	1
393.082	0.366662746	OZONE	lure	n/a	n/a	n/a	1
393.449	0.51665629	GODSPEED	lure	n/a	n/a	n/a	1
393.966	0.316664085	LIBRARY	lure	n/a	n/a	n/a	1
394.282	0.449993203	GAL	lure	n/a	n/a	n/a	1
394.732	0.449995178	GUIDANCE	lure	n/a	n/a	n/a	1
395.182	0.733317488	GODMOTHER	lure	n/a	n/a	n/a	1
395.916	0.683385222	BRA	lure	n/a	n/a	n/a	1
396.599	0.416604735	JOCKEY	lure	n/a	n/a	n/a	1
397.016	0.633427999	SALINE	lure	n/a	n/a	n/a	1
397.649	0.48322071	MINUET	lure	n/a	n/a	n/a	1
398.132	0.583326182	EYELASH	lure	n/a	n/a	n/a	1
398.716	0.683328533	TEPEE	lure	n/a	n/a	n/a	1
399.399	0.599982666	SWATCH	lure	n/a	n/a	n/a	1
399.999	0.616663207	SEAT	short	n/a	n/a	n/a	1
400.615	0.649989559	CONCOCTION	lure	n/a	n/a	n/a	1
401.265	0.599991227	CARTEL	lure	n/a	n/a	n/a	1
401.865	0.483326422	REVERIE	lure	n/a	n/a	n/a	1
402.349	0.73413053	MUTUALITY	lure	n/a	n/a	n/a	1
403.083	0.332520316	AMNESTY	lure	n/a	n/a	n/a	1
403.415	0.366660856	DEDUCTION	lure	n/a	n/a	n/a	1
403.782	0.73332254	EXHAUSTION	lure	n/a	n/a	n/a	1
404.515	0.59999244	VIOLET	lure	n/a	n/a	n/a	1
405.115	0.533328013	SHERRY	lure	n/a	n/a	n/a	1
405.649	0.433328384	RINK	lure	n/a	n/a	n/a	1
406.082	0.433324963	SPIDER	lure	n/a	n/a	n/a	1
406.515	0.633368366	PLAYTHING	lure	n/a	n/a	n/a	1
407.149	0.699947696	SLACKER	lure	n/a	n/a	n/a	1
407.849	0.416658251	RAVINE	lure	n/a	n/a	n/a	1
408.265	1.016653556	MULBERRY	fruit	870	2	2	1
409.282	0.449992627	PARAGON	lure	n/a	n/a	n/a	1
409.732	0.366731891	DEMERIT	lure	n/a	n/a	n/a	1
410.099	0.399921605	COMMUNITY	lure	n/a	n/a	n/a	1
410.499	0.416662898	HOUSECOAT	lure	n/a	n/a	n/a	1
410.915	0.566658661	PREDATOR	lure	n/a	n/a	n/a	1
411.482	0.716656551	PROJECTILE	lure	n/a	n/a	n/a	1
412.199	0.333328255	STATUE	lure	n/a	n/a	n/a	1
412.532	0.61665834	TANTRUM	lure	n/a	n/a	n/a	1
413.149	0.633324642	URGENCY	lure	n/a	n/a	n/a	1
413.782	0.616657292	PROFESSOR	lure	n/a	n/a	n/a	1
414.399	0.516660758	SNOWSTORM	lure	n/a	n/a	n/a	1
414.915	0.599990319	POCKETBOOK	lure	n/a	n/a	n/a	1
415.515	0.599991829	CHRONOLOGY	lure	n/a	n/a	n/a	1
416.115	0.399993054	COMPANION	lure	n/a	n/a	n/a	1
416.515	0.616659454	CHROME	short	n/a	n/a	n/a	1
417.132	0.333328441	WARSHIP	lure	n/a	n/a	n/a	1
417.465	0.616658067	COUNSELLOR	lure	n/a	n/a	n/a	1
418.082	0.533326947	OUTSET	lure	n/a	n/a	n/a	1
418.615	0.749989961	EXCITEMENT	lure	n/a	n/a	n/a	1
419.365	0.483321515	WAGTAIL	lure	n/a	n/a	n/a	1
419.849	0.566665554	LIGHTNING	lure	n/a	n/a	n/a	1
420.415	0.433327609	GUNBOAT	lure	n/a	n/a	n/a	1
420.849	0.616657828	PLANKTON	lure	n/a	n/a	n/a	1
421.465	0.583322775	FREEDMAN	lure	n/a	n/a	n/a	1
422.049	0.449989549	CLOCK	lure	n/a	n/a	n/a	1
422.499	0.466664775	MARLIN	lure	n/a	n/a	n/a	1
422.965	0.550050168	SAXOPHONE	lure	n/a	n/a	n/a	1
423.515	0.333263946	JUNGLE	lure	n/a	n/a	n/a	1
423.848	0.699995502	OFFENDER	lure	n/a	n/a	n/a	1
424.548	0.583326125	QUARTET	lure	n/a	n/a	n/a	1
425.132	0.616661552	CANDLE	short	n/a	n/a	n/a	1
425.748	0.333374015	DIVIDER	lure	n/a	n/a	n/a	1
426.082	0.549941088	WHIPLASH	lure	n/a	n/a	n/a	1
426.632	0.449992105	SUPREMACY	lure	n/a	n/a	n/a	1
427.082	0.683328857	EQUIPMENT	lure	n/a	n/a	n/a	1
427.765	0.688086815	EVANGELISM	lure	n/a	n/a	n/a	1
428.453	0.514563983	SAGA	lure	n/a	n/a	n/a	1
428.968	0.397322591	HOLDER	lure	n/a	n/a	n/a	1
429.365	0.399991934	ATTORNEY	lure	n/a	n/a	n/a	1
429.765	0.333334381	FIREBRAND	lure	n/a	n/a	n/a	1
430.098	0.333328253	URETHRA	lure	n/a	n/a	n/a	1
430.432	0.616658878	SYMPOSIUM	lure	n/a	n/a	n/a	1
431.048	0.783319203	DESSERT	lure	n/a	n/a	n/a	1
431.832	0.48332911	ROLLER	lure	n/a	n/a	n/a	1
432.315	0.500038322	INFLATION	lure	n/a	n/a	n/a	1
432.815	0.599944811	BAROMETER	lure	n/a	n/a	n/a	1
433.415	2.016639117	FOAM	long	n/a	n/a	n/a	1
435.432	0.366662643	QUACKERY	lure	n/a	n/a	n/a	1
435.798	0.733324515	BARBARIAN	lure	n/a	n/a	n/a	1
436.532	0.566656777	CATHEDRAL	lure	n/a	n/a	n/a	1
437.098	0.400057246	ARCHETYPE	lure	n/a	n/a	n/a	1
437.498	0.733260445	DISPENSARY	lure	n/a	n/a	n/a	1
438.232	0.399991881	FROG	lure	n/a	n/a	n/a	1
438.632	0.616661216	LIVESTOCK	lure	n/a	n/a	n/a	1
439.248	0.666651817	POSSESSION	lure	n/a	n/a	n/a	1
439.915	0.516658046	MEDLEY	lure	n/a	n/a	n/a	1
440.432	0.600052673	POPULATION	lure	n/a	n/a	n/a	1
441.032	0.516661898	NYLON	lure	n/a	n/a	n/a	1
441.548	2.016582722	TRIPOD	long	n/a	n/a	n/a	1
443.565	0.416704845	FOOLERY	lure	n/a	n/a	n/a	1
443.982	0.733330938	DISTENSION	lure	n/a	n/a	n/a	1
444.715	0.466603138	DECANTER	lure	n/a	n/a	n/a	1
445.182	0.466658598	COTTONSEED	lure	n/a	n/a	n/a	1
445.648	0.699991751	DRESSMAKER	lure	n/a	n/a	n/a	1
446.348	0.352204338	RADIANCE	lure	n/a	n/a	n/a	1
446.7	0.650566634	ACORN	lure	n/a	n/a	n/a	1
447.351	0.48054322	POPCORN	lure	n/a	n/a	n/a	1
447.831	0.349993784	COHERENCE	lure	n/a	n/a	n/a	1
448.181	0.333329474	RELAXATION	lure	n/a	n/a	n/a	1
448.515	0.399995713	INFLECTION	lure	n/a	n/a	n/a	1
448.915	0.400050525	BROADCLOTH	lure	n/a	n/a	n/a	1
449.315	0.68326548	GALE	lure	n/a	n/a	n/a	1
449.998	0.666656486	MORNING	short	n/a	n/a	n/a	1
450.665	0.433386938	MOLECULE	lure	n/a	n/a	n/a	1
451.098	0.416648552	ROTUNDA	lure	n/a	n/a	n/a	1
451.515	0.38328126	BRONZE	lure	n/a	n/a	n/a	1
451.898	0.500050141	LORDSHIP	lure	n/a	n/a	n/a	1
452.398	0.766601191	PORTFOLIO	lure	n/a	n/a	n/a	1
453.165	0.350057087	DEGREE	lure	n/a	n/a	n/a	1
453.515	0.716650553	BEDSTEAD	lure	n/a	n/a	n/a	1
454.231	0.749927014	PROCEDURE	lure	n/a	n/a	n/a	1
454.981	0.749992248	GIRDLE	lure	n/a	n/a	n/a	1
455.731	0.39999279	MACKEREL	lure	n/a	n/a	n/a	1
456.131	0.399998618	DISSECTION	lure	n/a	n/a	n/a	1
456.531	0.36665938	SMOKER	lure	n/a	n/a	n/a	1
456.898	0.450055371	MAMA	lure	n/a	n/a	n/a	1
457.348	0.699929555	NOONTIME	lure	n/a	n/a	n/a	1
458.048	0.333327141	CREATURE	lure	n/a	n/a	n/a	1
458.381	0.566720227	VERACITY	lure	n/a	n/a	n/a	1
458.948	0.733307297	ARCHANGEL	lure	n/a	n/a	n/a	1
459.681	0.567269951	FLOODGATE	lure	n/a	n/a	n/a	1
460.249	0.599338712	PROJECTION	lure	n/a	n/a	n/a	1
460.848	0.499988678	HESITANCY	lure	n/a	n/a	n/a	1
461.348	0.649989174	PROPANE	lure	n/a	n/a	n/a	1
461.998	0.533327844	FLAX	lure	n/a	n/a	n/a	1
462.531	0.516703903	CHAPTER	lure	n/a	n/a	n/a	1
463.048	0.633279328	SURVIVAL	lure	n/a	n/a	n/a	1
463.681	0.383327709	TAB	lure	n/a	n/a	n/a	1
464.065	0.333332123	LOGIC	lure	n/a	n/a	n/a	1
464.398	n/a	FEEDBAG	lure	n/a	n/a	n/a	1