onset	duration	stim        	cond    	RT  	resp	cresp	acc 
4.045	0.649991677	WIDOWHOOD   	lure    	n/a  	n/a  	n/a  	1
4.695	0.599987487	MILE        	lure    	n/a  	n/a  	n/a  	1
5.295	0.400035642	JUDGESHIP   	lure    	n/a  	n/a  	n/a  	1
5.695	0.716618728	PELICAN     	lure    	n/a  	n/a  	n/a  	1
6.412	0.466662499	DEFICIENCY  	lure    	n/a  	n/a  	n/a  	1
6.879	0.433325356	WILDCAT     	lure    	n/a  	n/a  	n/a  	1
7.312	0.61665833	REGISTER    	short   	n/a  	n/a  	n/a  	1
7.929	0.599992801	GRAVITY     	lure    	n/a  	n/a  	n/a  	1
8.529	0.316751822	ATTENTION   	lure    	n/a  	n/a  	n/a  	1
8.845	0.799897147	EMOTION     	lure    	n/a  	n/a  	n/a  	1
9.645	0.566660459	GREENHORN   	lure    	n/a  	n/a  	n/a  	1
10.212	0.516717276	MISDEED     	lure    	n/a  	n/a  	n/a  	1
10.729	0.399936194	HILARITY    	lure    	n/a  	n/a  	n/a  	1
11.129	0.583320183	SCRUBBER    	lure    	n/a  	n/a  	n/a  	1
11.712	0.4834143	HANDCART    	lure    	n/a  	n/a  	n/a  	1
12.195	0.499909482	MONOTONY    	lure    	n/a  	n/a  	n/a  	1
12.695	0.599990974	INCEPTION   	lure    	n/a  	n/a  	n/a  	1
13.295	0.616696116	OPTICIAN    	lure    	n/a  	n/a  	n/a  	1
13.912	0.383289618	GRANITE     	lure    	n/a  	n/a  	n/a  	1
14.295	0.649988489	APPENDAGE   	lure    	n/a  	n/a  	n/a  	1
14.945	0.749993048	HUSSY       	lure    	n/a  	n/a  	n/a  	1
15.695	1.021478785	KIWI        	fruit   	862	2	2	1
16.717	0.561829854	LUCK        	lure    	n/a  	n/a  	n/a  	1
17.279	0.449996205	RESIDENCY   	lure    	n/a  	n/a  	n/a  	1
17.729	0.716654385	SAILOR      	lure    	n/a  	n/a  	n/a  	1
18.445	0.316716745	DIVINITY    	lure    	n/a  	n/a  	n/a  	1
18.762	0.466605563	CATARACT    	lure    	n/a  	n/a  	n/a  	1
19.229	0.566657829	OBSESSION   	lure    	n/a  	n/a  	n/a  	1
19.795	0.467443784	TRUSTEE     	lure    	n/a  	n/a  	n/a  	1
20.263	0.632540931	DUGOUT      	lure    	n/a  	n/a  	n/a  	1
20.895	0.699990914	GODFATHER   	lure    	n/a  	n/a  	n/a  	1
21.595	0.466661756	SHOWGIRL    	lure    	n/a  	n/a  	n/a  	1
22.062	0.516659184	JUBILATION  	lure    	n/a  	n/a  	n/a  	1
22.578	0.433325095	ARMADILLO   	lure    	n/a  	n/a  	n/a  	1
23.012	0.466723033	LADYSHIP    	lure    	n/a  	n/a  	n/a  	1
23.479	0.583308518	DOLLY       	lure    	n/a  	n/a  	n/a  	1
24.062	2.016593107	FOAM        	long    	n/a  	n/a  	n/a  	1
26.078	0.349995794	LANDHOLDER  	lure    	n/a  	n/a  	n/a  	1
26.428	0.616706828	DENIM       	lure    	n/a  	n/a  	n/a  	1
27.045	0.399944818	MAYONNAISE  	lure    	n/a  	n/a  	n/a  	1
27.445	0.666717216	COURTHOUSE  	lure    	n/a  	n/a  	n/a  	1
28.112	0.633265289	PSEUDONYM   	lure    	n/a  	n/a  	n/a  	1
28.745	0.400055254	INABILITY   	lure    	n/a  	n/a  	n/a  	1
29.145	0.733527166	BLACKJACK   	lure    	n/a  	n/a  	n/a  	1
29.879	0.333110429	TRICOLOR    	lure    	n/a  	n/a  	n/a  	1
30.212	0.716607041	SEVERANCE   	lure    	n/a  	n/a  	n/a  	1
30.928	0.716719129	SCRAMBLER   	lure    	n/a  	n/a  	n/a  	1
31.645	0.566599145	CRANIUM     	lure    	n/a  	n/a  	n/a  	1
32.212	0.751362623	CLOCKWORK   	lure    	n/a  	n/a  	n/a  	1
32.963	1.065276389	PLUM        	fruit   	803	2	2	1
34.028	0.716659558	CASKET      	lure    	n/a  	n/a  	n/a  	1
34.745	0.699988696	MOTORCYCLE  	lure    	n/a  	n/a  	n/a  	1
35.445	0.468352741	ENIGMA      	lure    	n/a  	n/a  	n/a  	1
35.913	0.482557415	DOMICILE    	lure    	n/a  	n/a  	n/a  	1
36.396	0.749061597	CURLER      	lure    	n/a  	n/a  	n/a  	1
37.145	0.716721844	TRACKER     	lure    	n/a  	n/a  	n/a  	1
37.862	0.499991312	HIP         	lure    	n/a  	n/a  	n/a  	1
38.362	0.549933839	LAW         	lure    	n/a  	n/a  	n/a  	1
38.912	0.766653336	TRAFFIC     	lure    	n/a  	n/a  	n/a  	1
39.678	0.599991999	MOUTHPIECE  	lure    	n/a  	n/a  	n/a  	1
40.278	0.733322422	EGOTIST     	lure    	n/a  	n/a  	n/a  	1
41.012	0.44999098	PLAYSUIT    	lure    	n/a  	n/a  	n/a  	1
41.462	2.016639945	POLE        	long    	n/a  	n/a  	n/a  	1
43.478	0.649994148	LIP         	lure    	n/a  	n/a  	n/a  	1
44.128	0.533324782	OPIUM       	lure    	n/a  	n/a  	n/a  	1
44.661	0.549992965	BREADBOARD  	lure    	n/a  	n/a  	n/a  	1
45.211	0.383328184	MAXIMA      	lure    	n/a  	n/a  	n/a  	1
45.595	0.500094737	ARTERY      	lure    	n/a  	n/a  	n/a  	1
46.095	0.638000364	FEROCITY    	lure    	n/a  	n/a  	n/a  	1
46.733	0.578546973	CAULDRON    	lure    	n/a  	n/a  	n/a  	1
47.311	0.70058824	PROCURER    	lure    	n/a  	n/a  	n/a  	1
48.012	0.716124245	UPROAR      	lure    	n/a  	n/a  	n/a  	1
48.728	0.733257246	VIDEOTAPE   	lure    	n/a  	n/a  	n/a  	1
49.461	0.533406493	SCUT        	lure    	n/a  	n/a  	n/a  	1
49.995	2.016557174	BELT        	long    	n/a  	n/a  	n/a  	1
52.011	0.616717294	ADJUNCT     	lure    	n/a  	n/a  	n/a  	1
52.628	0.59993117	INTENTION   	lure    	n/a  	n/a  	n/a  	1
53.228	0.483374836	TRIAL       	lure    	n/a  	n/a  	n/a  	1
53.711	0.316727321	WAY         	lure    	n/a  	n/a  	n/a  	1
54.028	0.73320941	THICKENER   	lure    	n/a  	n/a  	n/a  	1
54.761	0.533407952	INCIVILITY  	lure    	n/a  	n/a  	n/a  	1
55.295	0.633241507	HESITATION  	lure    	n/a  	n/a  	n/a  	1
55.928	0.749991685	MONUMENT    	lure    	n/a  	n/a  	n/a  	1
56.678	0.483326285	CONFLUENCE  	lure    	n/a  	n/a  	n/a  	1
57.161	0.333327689	APOSTROPHE  	lure    	n/a  	n/a  	n/a  	1
57.495	0.333386772	BARLEY      	lure    	n/a  	n/a  	n/a  	1
57.828	0.483266994	HARLOT      	lure    	n/a  	n/a  	n/a  	1
58.311	0.616658565	PIN         	short   	n/a  	n/a  	n/a  	1
58.928	0.349996323	SWIMMER     	lure    	n/a  	n/a  	n/a  	1
59.278	0.349993882	BREWERY     	lure    	n/a  	n/a  	n/a  	1
59.628	0.400032119	ROSETTE     	lure    	n/a  	n/a  	n/a  	1
60.028	0.516622259	ODE         	lure    	n/a  	n/a  	n/a  	1
60.545	0.54999296	LITERACY    	lure    	n/a  	n/a  	n/a  	1
61.095	0.616659417	SHELLFISH   	lure    	n/a  	n/a  	n/a  	1
61.711	0.33332799	TOMCAT      	lure    	n/a  	n/a  	n/a  	1
62.045	0.516658106	SHIRE       	lure    	n/a  	n/a  	n/a  	1
62.561	0.499989006	MOUTH       	lure    	n/a  	n/a  	n/a  	1
63.061	0.599995375	BRIAR       	lure    	n/a  	n/a  	n/a  	1
63.661	0.58332429	LABYRINTH   	lure    	n/a  	n/a  	n/a  	1
64.245	0.600050104	PUPPY       	lure    	n/a  	n/a  	n/a  	1
64.845	0.3668033	SOJOURNER   	lure    	n/a  	n/a  	n/a  	1
65.211	0.666457116	PROTOCOL    	lure    	n/a  	n/a  	n/a  	1
65.878	0.333329761	HANDIWORK   	lure    	n/a  	n/a  	n/a  	1
66.211	2.01663691	CRAYON      	long    	n/a  	n/a  	n/a  	1
68.228	0.549993566	CORNFLOUR   	lure    	n/a  	n/a  	n/a  	1
68.778	0.449993446	AMORALITY   	lure    	n/a  	n/a  	n/a  	1
69.228	0.466658794	NOBLEMAN    	lure    	n/a  	n/a  	n/a  	1
69.694	0.716658347	JUNIPER     	lure    	n/a  	n/a  	n/a  	1
70.411	0.449993128	EMBANKMENT  	lure    	n/a  	n/a  	n/a  	1
70.861	0.399992831	INSET       	lure    	n/a  	n/a  	n/a  	1
71.261	0.333332972	ENORMITY    	lure    	n/a  	n/a  	n/a  	1
71.594	0.349988624	MARCHER     	lure    	n/a  	n/a  	n/a  	1
71.944	0.699993849	DECENCY     	lure    	n/a  	n/a  	n/a  	1
72.644	0.53343107	BEEFCAKE    	lure    	n/a  	n/a  	n/a  	1
73.178	0.366551085	MACK        	lure    	n/a  	n/a  	n/a  	1
73.544	0.616663462	KNOCKOUT    	lure    	n/a  	n/a  	n/a  	1
74.161	0.516657893	LEGALITY    	lure    	n/a  	n/a  	n/a  	1
74.678	1.016653639	WATERMELON  	fruit   	848	2	2	1
75.694	0.383328863	VERTEX      	lure    	n/a  	n/a  	n/a  	1
76.078	0.633370652	CRYPT       	lure    	n/a  	n/a  	n/a  	1
76.711	0.733322766	AMBASSADOR  	lure    	n/a  	n/a  	n/a  	1
77.444	0.749940833	ESQUIRE     	lure    	n/a  	n/a  	n/a  	1
78.194	0.366724723	DAIRYMAN    	lure    	n/a  	n/a  	n/a  	1
78.561	0.699973388	IMPLOSION   	lure    	n/a  	n/a  	n/a  	1
79.261	0.649943734	MULE        	lure    	n/a  	n/a  	n/a  	1
79.911	0.48332428	TIDEWAY     	lure    	n/a  	n/a  	n/a  	1
80.394	0.433329735	BARRACUDA   	lure    	n/a  	n/a  	n/a  	1
80.828	0.366722518	DEVICE      	lure    	n/a  	n/a  	n/a  	1
81.194	0.616713878	PLAQUE      	lure    	n/a  	n/a  	n/a  	1
81.811	0.399876673	CONQUEST    	lure    	n/a  	n/a  	n/a  	1
82.211	0.600028677	CHUTE       	lure    	n/a  	n/a  	n/a  	1
82.811	0.450015487	TAVERN      	lure    	n/a  	n/a  	n/a  	1
83.261	0.616600901	CANDLE      	short   	n/a  	n/a  	n/a  	1
83.878	0.483386077	MILLIMETER  	lure    	n/a  	n/a  	n/a  	1
84.361	0.333267614	FIRELIGHT   	lure    	n/a  	n/a  	n/a  	1
84.694	0.600065593	LISTENER    	lure    	n/a  	n/a  	n/a  	1
85.294	0.433254792	VARSITY     	lure    	n/a  	n/a  	n/a  	1
85.728	0.34999535	ACTION      	lure    	n/a  	n/a  	n/a  	1
86.078	0.36671937	MOLAR       	lure    	n/a  	n/a  	n/a  	1
86.444	0.483267651	STOREFRONT  	lure    	n/a  	n/a  	n/a  	1
86.928	0.687742542	REDEMPTION  	lure    	n/a  	n/a  	n/a  	1
87.615	0.331509413	EASEMENT    	lure    	n/a  	n/a  	n/a  	1
87.947	0.630725577	EXERTION    	lure    	n/a  	n/a  	n/a  	1
88.578	0.533324559	FERTILITY   	lure    	n/a  	n/a  	n/a  	1
89.111	0.699989232	SINCERITY   	lure    	n/a  	n/a  	n/a  	1
89.811	0.499994749	TERROR      	lure    	n/a  	n/a  	n/a  	1
90.311	0.649990411	POSTMAN     	lure    	n/a  	n/a  	n/a  	1
90.961	0.516655261	PLUNGER     	lure    	n/a  	n/a  	n/a  	1
91.477	1.018794406	GRAPEFRUIT  	fruit   	840	2	2	1
92.496	0.431189652	PASSERBY    	lure    	n/a  	n/a  	n/a  	1
92.927	0.336936421	DISREPAIR   	lure    	n/a  	n/a  	n/a  	1
93.264	0.596383249	SHOTGUN     	lure    	n/a  	n/a  	n/a  	1
93.861	0.399993132	ARENA       	lure    	n/a  	n/a  	n/a  	1
94.261	0.466659157	AGENDA      	lure    	n/a  	n/a  	n/a  	1
94.727	0.616722307	ANIMALISM   	lure    	n/a  	n/a  	n/a  	1
95.344	0.699927503	HIGHWAYMAN  	lure    	n/a  	n/a  	n/a  	1
96.044	0.716655237	PERFUSION   	lure    	n/a  	n/a  	n/a  	1
96.761	0.516659823	TESTER      	lure    	n/a  	n/a  	n/a  	1
97.277	0.699990119	RESIDUE     	lure    	n/a  	n/a  	n/a  	1
97.977	0.550056201	EQUATOR     	lure    	n/a  	n/a  	n/a  	1
98.527	0.366657378	SQUATTER    	lure    	n/a  	n/a  	n/a  	1
98.894	0.533327825	KRAUT       	lure    	n/a  	n/a  	n/a  	1
99.427	0.683264516	ELEVATION   	lure    	n/a  	n/a  	n/a  	1
100.111	0.616657903	MORNING     	short   	n/a  	n/a  	n/a  	1
100.727	0.500062629	TEMPERANCE  	lure    	n/a  	n/a  	n/a  	1
101.227	0.433309836	HOMELAND    	lure    	n/a  	n/a  	n/a  	1
101.661	0.350001654	TWOSOME     	lure    	n/a  	n/a  	n/a  	1
102.011	0.549981346	JIFFY       	lure    	n/a  	n/a  	n/a  	1
102.561	0.683273686	SYNC        	lure    	n/a  	n/a  	n/a  	1
103.244	0.616727412	PENTHOUSE   	lure    	n/a  	n/a  	n/a  	1
103.861	0.50439842	MARMALADE   	lure    	n/a  	n/a  	n/a  	1
104.365	0.378854031	HUBCAP      	lure    	n/a  	n/a  	n/a  	1
104.744	0.383369601	LINGO       	lure    	n/a  	n/a  	n/a  	1
105.127	0.683280668	GIRL        	lure    	n/a  	n/a  	n/a  	1
105.811	0.466744799	MAJORITY    	lure    	n/a  	n/a  	n/a  	1
106.277	0.683289128	COLLIE      	lure    	n/a  	n/a  	n/a  	1
106.961	0.499939392	CENTIMETER  	lure    	n/a  	n/a  	n/a  	1
107.461	0.483428616	TOOTHBRUSH  	lure    	n/a  	n/a  	n/a  	1
107.944	0.466561438	BUCCANEER   	lure    	n/a  	n/a  	n/a  	1
108.411	2.050023249	PYRAMID     	long    	n/a  	n/a  	n/a  	1
110.461	0.735749635	PACKAGE     	lure    	n/a  	n/a  	n/a  	1
111.196	0.547590033	NINTENDO    	lure    	n/a  	n/a  	n/a  	1
111.744	0.684544639	ROOKIE      	lure    	n/a  	n/a  	n/a  	1
112.429	0.615356705	LANCER      	lure    	n/a  	n/a  	n/a  	1
113.044	0.466723789	COOLANT     	lure    	n/a  	n/a  	n/a  	1
113.511	0.666597797	LOCKSMITH   	lure    	n/a  	n/a  	n/a  	1
114.177	0.733324296	VECTOR      	lure    	n/a  	n/a  	n/a  	1
114.911	0.683380541	HEATSTROKE  	lure    	n/a  	n/a  	n/a  	1
115.594	0.687522153	LINER       	lure    	n/a  	n/a  	n/a  	1
116.281	0.395735705	CRAB        	lure    	n/a  	n/a  	n/a  	1
116.677	0.61666054	PISTOL      	short   	n/a  	n/a  	n/a  	1
117.294	0.700051448	GOOSE       	lure    	n/a  	n/a  	n/a  	1
117.994	0.516596164	VERDICT     	lure    	n/a  	n/a  	n/a  	1
118.51	0.316662311	STALKER     	lure    	n/a  	n/a  	n/a  	1
118.827	0.599991352	RAYON       	lure    	n/a  	n/a  	n/a  	1
119.427	0.56921086	MILKMAN     	lure    	n/a  	n/a  	n/a  	1
119.996	0.53077104	RODEO       	lure    	n/a  	n/a  	n/a  	1
120.527	0.350045917	SIGNATURE   	lure    	n/a  	n/a  	n/a  	1
120.877	0.533277617	MOCCASIN    	lure    	n/a  	n/a  	n/a  	1
121.41	0.48332736	KINSMAN     	lure    	n/a  	n/a  	n/a  	1
121.894	0.333327747	COLORATION  	lure    	n/a  	n/a  	n/a  	1
122.227	0.649990499	DIAGRAM     	lure    	n/a  	n/a  	n/a  	1
122.877	0.470361626	BREAKAWAY   	lure    	n/a  	n/a  	n/a  	1
123.347	0.746288993	DEPOSITION  	lure    	n/a  	n/a  	n/a  	1
124.094	0.633384725	FOLKLORE    	lure    	n/a  	n/a  	n/a  	1
124.727	0.616597152	MOUNTAIN    	short   	n/a  	n/a  	n/a  	1
125.344	0.699990214	MATRIARCHY  	lure    	n/a  	n/a  	n/a  	1
126.044	0.466659556	SISTERHOOD  	lure    	n/a  	n/a  	n/a  	1
126.51	0.349991942	LYRICISM    	lure    	n/a  	n/a  	n/a  	1
126.86	0.799988423	MELODY      	lure    	n/a  	n/a  	n/a  	1
127.66	0.316711487	DASHBOARD   	lure    	n/a  	n/a  	n/a  	1
127.977	0.583278914	CARNIVAL    	lure    	n/a  	n/a  	n/a  	1
128.56	0.533386341	PATRON      	lure    	n/a  	n/a  	n/a  	1
129.094	0.733385465	SALARY      	lure    	n/a  	n/a  	n/a  	1
129.827	0.7498659	PACIFIER    	lure    	n/a  	n/a  	n/a  	1
130.577	0.766657371	LIKELIHOOD  	lure    	n/a  	n/a  	n/a  	1
131.344	0.616721021	BUTLER      	lure    	n/a  	n/a  	n/a  	1
131.96	0.349931524	VIPER       	lure    	n/a  	n/a  	n/a  	1
132.31	0.616657144	QUARTZ      	lure    	n/a  	n/a  	n/a  	1
132.927	0.650051409	ARCTIC      	short   	n/a  	n/a  	n/a  	1
133.577	0.483267347	OFFICER     	lure    	n/a  	n/a  	n/a  	1
134.06	0.61665763	SYNONYM     	lure    	n/a  	n/a  	n/a  	1
134.677	0.550050314	PARENT      	lure    	n/a  	n/a  	n/a  	1
135.227	0.466644691	COURAGE     	lure    	n/a  	n/a  	n/a  	1
135.694	0.583280445	TRANCE      	lure    	n/a  	n/a  	n/a  	1
136.277	0.716707826	LOCALITY    	lure    	n/a  	n/a  	n/a  	1
136.994	0.683274536	MANICURIST  	lure    	n/a  	n/a  	n/a  	1
137.677	0.316661081	CLIFF       	lure    	n/a  	n/a  	n/a  	1
137.994	0.433328516	PENINSULA   	lure    	n/a  	n/a  	n/a  	1
138.427	0.783320589	COMPLEMENT  	lure    	n/a  	n/a  	n/a  	1
139.21	0.549995469	PROPORTION  	lure    	n/a  	n/a  	n/a  	1
139.76	0.699987428	WATCHDOG    	lure    	n/a  	n/a  	n/a  	1
140.46	0.616659261	REFINEMENT  	lure    	n/a  	n/a  	n/a  	1
141.077	2.016638358	TRIPOD      	long    	n/a  	n/a  	n/a  	1
143.093	0.649988725	FOOTSTOOL   	lure    	n/a  	n/a  	n/a  	1
143.743	0.499996169	HUT         	lure    	n/a  	n/a  	n/a  	1
144.243	0.466656859	PRIORITY    	lure    	n/a  	n/a  	n/a  	1
144.71	0.583385634	SNOOK       	lure    	n/a  	n/a  	n/a  	1
145.293	0.749928928	PARTICLE    	lure    	n/a  	n/a  	n/a  	1
146.043	0.61665767	CANISTER    	lure    	n/a  	n/a  	n/a  	1
146.66	0.683455889	IRONWORK    	lure    	n/a  	n/a  	n/a  	1
147.344	0.516589184	SCAFFOLD    	lure    	n/a  	n/a  	n/a  	1
147.86	0.316600995	FOREIGNER   	lure    	n/a  	n/a  	n/a  	1
148.177	0.316661637	PATRIARCH   	lure    	n/a  	n/a  	n/a  	1
148.493	0.399994705	ARCADE      	lure    	n/a  	n/a  	n/a  	1
148.893	1.016698634	RASPBERRY   	fruit   	808	2	2	1
149.91	0.666611922	PROJECT     	lure    	n/a  	n/a  	n/a  	1
150.577	0.73331953	BROTHEL     	lure    	n/a  	n/a  	n/a  	1
151.31	0.499994954	GIVER       	lure    	n/a  	n/a  	n/a  	1
151.81	0.649991058	HELLCAT     	lure    	n/a  	n/a  	n/a  	1
152.46	0.566659674	ROUNDHOUSE  	lure    	n/a  	n/a  	n/a  	1
153.027	0.666657075	FARMHOUSE   	lure    	n/a  	n/a  	n/a  	1
153.693	0.516708319	NONPAYMENT  	lure    	n/a  	n/a  	n/a  	1
154.21	0.483273458	SHAWL       	lure    	n/a  	n/a  	n/a  	1
154.693	0.666660839	CRAWLSPACE  	lure    	n/a  	n/a  	n/a  	1
155.36	0.516658289	FORTNIGHT   	lure    	n/a  	n/a  	n/a  	1
155.877	0.483324055	CROSSBEAM   	lure    	n/a  	n/a  	n/a  	1
156.36	0.649994937	CONTRAST    	lure    	n/a  	n/a  	n/a  	1
157.01	0.433325136	OCTAGON     	lure    	n/a  	n/a  	n/a  	1
157.443	0.650046414	SEAT        	short   	n/a  	n/a  	n/a  	1
158.093	0.516604996	MONEYMAKER  	lure    	n/a  	n/a  	n/a  	1
158.61	0.616772514	EXPOSURE    	lure    	n/a  	n/a  	n/a  	1
159.227	0.73320926	LANDSLIDE   	lure    	n/a  	n/a  	n/a  	1
159.96	0.366661174	SOAPBOX     	lure    	n/a  	n/a  	n/a  	1
160.327	0.316709777	REVOLVER    	lure    	n/a  	n/a  	n/a  	1
160.643	0.683276323	LADYBIRD    	lure    	n/a  	n/a  	n/a  	1
161.327	0.500039505	FLATFOOT    	lure    	n/a  	n/a  	n/a  	1
161.827	0.649943454	PRETEST     	lure    	n/a  	n/a  	n/a  	1
162.476	0.733325505	TALISMAN    	lure    	n/a  	n/a  	n/a  	1
163.21	0.399989958	QUARRY      	lure    	n/a  	n/a  	n/a  	1
163.61	0.449995296	NECTAR      	lure    	n/a  	n/a  	n/a  	1
164.06	0.666658897	HEALER      	lure    	n/a  	n/a  	n/a  	1
164.726	0.53332588	DECIBEL     	lure    	n/a  	n/a  	n/a  	1
165.26	0.500035944	COMMITMENT  	lure    	n/a  	n/a  	n/a  	1
165.76	2.016594142	PICK        	long    	n/a  	n/a  	n/a  	1
167.776	0.333373223	SATELLITE   	lure    	n/a  	n/a  	n/a  	1
168.11	0.38328212	STAKEOUT    	lure    	n/a  	n/a  	n/a  	1
168.493	0.31671222	FATSO       	lure    	n/a  	n/a  	n/a  	1
168.81	0.749939851	RETROSPECT  	lure    	n/a  	n/a  	n/a  	1
169.56	0.650052333	ALPHABET    	lure    	n/a  	n/a  	n/a  	1
170.21	0.751133938	OFFENSE     	lure    	n/a  	n/a  	n/a  	1
170.961	0.732113063	COUPE       	lure    	n/a  	n/a  	n/a  	1
171.693	0.483329501	BURLAP      	lure    	n/a  	n/a  	n/a  	1
172.176	0.349996839	IMMENSITY   	lure    	n/a  	n/a  	n/a  	1
172.526	0.416717282	NUTCRACKER  	lure    	n/a  	n/a  	n/a  	1
172.943	0.533265406	JUDO        	lure    	n/a  	n/a  	n/a  	1
173.476	0.583325175	PENITENCE   	lure    	n/a  	n/a  	n/a  	1
174.06	1.016655508	PEAR        	fruit   	770	2	2	1
175.076	0.500045337	BANISTER    	lure    	n/a  	n/a  	n/a  	1
175.576	0.516607583	HARVESTER   	lure    	n/a  	n/a  	n/a  	1
176.093	0.63340397	LOCKOUT     	lure    	n/a  	n/a  	n/a  	1
176.726	0.434325472	GILL        	lure    	n/a  	n/a  	n/a  	1
177.161	0.519449292	SEAFOOD     	lure    	n/a  	n/a  	n/a  	1
177.68	0.446123029	CHIMNEY     	lure    	n/a  	n/a  	n/a  	1
178.126	0.666708401	DEPENDENCE  	lure    	n/a  	n/a  	n/a  	1
178.793	0.716608598	STRENGTH    	lure    	n/a  	n/a  	n/a  	1
179.51	0.683380107	BRIMSTONE   	lure    	n/a  	n/a  	n/a  	1
180.193	0.499935398	STINGER     	lure    	n/a  	n/a  	n/a  	1
180.693	0.666653523	ASCENDANCY  	lure    	n/a  	n/a  	n/a  	1
181.36	0.616660049	PROVIDENCE  	lure    	n/a  	n/a  	n/a  	1
181.976	0.333330336	RETRIEVER   	lure    	n/a  	n/a  	n/a  	1
182.31	2.016639293	APRON       	long    	n/a  	n/a  	n/a  	1
184.326	0.599986783	PINHEAD     	lure    	n/a  	n/a  	n/a  	1
184.926	0.38333223	SLIPKNOT    	lure    	n/a  	n/a  	n/a  	1
185.31	0.566657841	NAVIGATION  	lure    	n/a  	n/a  	n/a  	1
185.876	0.516659097	GLAMOR      	lure    	n/a  	n/a  	n/a  	1
186.393	0.383328595	FINGERTIP   	lure    	n/a  	n/a  	n/a  	1
186.776	0.433327845	GAGGLE      	lure    	n/a  	n/a  	n/a  	1
187.209	0.599986312	RIBBON      	lure    	n/a  	n/a  	n/a  	1
187.809	0.766657892	MACHINIST   	lure    	n/a  	n/a  	n/a  	1
188.576	0.483324187	NUMERATION  	lure    	n/a  	n/a  	n/a  	1
189.059	0.499995375	VENTURER    	lure    	n/a  	n/a  	n/a  	1
189.559	0.683324391	MOKE        	lure    	n/a  	n/a  	n/a  	1
190.243	0.533427837	IMMUNITY    	lure    	n/a  	n/a  	n/a  	1
190.776	2.016539103	LABEL       	long    	n/a  	n/a  	n/a  	1
192.793	0.499991309	DIAMETER    	lure    	n/a  	n/a  	n/a  	1
193.293	0.649987218	HAMBURGER   	lure    	n/a  	n/a  	n/a  	1
193.943	0.633377339	NOBILITY    	lure    	n/a  	n/a  	n/a  	1
194.576	0.449944822	SEVERITY    	lure    	n/a  	n/a  	n/a  	1
195.026	0.766655128	BACKBONE    	lure    	n/a  	n/a  	n/a  	1
195.793	0.699988488	PALMETTO    	lure    	n/a  	n/a  	n/a  	1
196.493	0.533327389	CALIPER     	lure    	n/a  	n/a  	n/a  	1
197.026	0.383398933	RENOWN      	lure    	n/a  	n/a  	n/a  	1
197.409	0.733300774	NORM        	lure    	n/a  	n/a  	n/a  	1
198.143	0.71660953	RAILROAD    	lure    	n/a  	n/a  	n/a  	1
198.859	0.616657327	CHROME      	short   	n/a  	n/a  	n/a  	1
199.476	0.650032429	POLYGON     	lure    	n/a  	n/a  	n/a  	1
200.126	0.383351031	HATBAND     	lure    	n/a  	n/a  	n/a  	1
200.509	0.5332587	SONAR       	lure    	n/a  	n/a  	n/a  	1
201.043	0.749991474	COMMITTAL   	lure    	n/a  	n/a  	n/a  	1
201.793	0.350041504	MAPLE       	lure    	n/a  	n/a  	n/a  	1
202.143	0.73327475	ONSLAUGHT   	lure    	n/a  	n/a  	n/a  	1
202.876	0.48332647	CREDENCE    	lure    	n/a  	n/a  	n/a  	1
203.359	0.350078044	FREEBIE     	lure    	n/a  	n/a  	n/a  	1
203.709	0.466658772	HAG         	lure    	n/a  	n/a  	n/a  	1
204.176	0.54991089	THRUSH      	lure    	n/a  	n/a  	n/a  	1
204.726	0.699989761	REGULARITY  	lure    	n/a  	n/a  	n/a  	1
205.426	0.366657533	PESTICIDE   	lure    	n/a  	n/a  	n/a  	1
205.793	0.316661733	UNDERTONE   	lure    	n/a  	n/a  	n/a  	1
206.109	0.783327739	REDUCER     	lure    	n/a  	n/a  	n/a  	1
206.893	0.7166557	HANDLEBAR   	lure    	n/a  	n/a  	n/a  	1
207.609	2.016638496	COAT        	long    	n/a  	n/a  	n/a  	1
209.626	0.749990452	SIDEKICK    	lure    	n/a  	n/a  	n/a  	1
210.376	0.516658154	POINSETTIA  	lure    	n/a  	n/a  	n/a  	1
210.892	0.733324196	SHOWPLACE   	lure    	n/a  	n/a  	n/a  	1
211.626	0.416659537	GENERATOR   	lure    	n/a  	n/a  	n/a  	1
212.042	0.566658378	PULSATION   	lure    	n/a  	n/a  	n/a  	1
212.609	0.366661573	WRISTBAND   	lure    	n/a  	n/a  	n/a  	1
212.976	0.466659819	HIGHLAND    	lure    	n/a  	n/a  	n/a  	1
213.442	0.433327311	TUITION     	lure    	n/a  	n/a  	n/a  	1
213.876	0.466659817	CODFISH     	lure    	n/a  	n/a  	n/a  	1
214.342	0.616659334	BACKGAMMON  	lure    	n/a  	n/a  	n/a  	1
214.959	0.449991491	CHORD       	lure    	n/a  	n/a  	n/a  	1
215.409	0.483325438	FORESTER    	lure    	n/a  	n/a  	n/a  	1
215.892	0.616660074	ARROW       	short   	n/a  	n/a  	n/a  	1
216.509	0.516660231	COLLEAGUE   	lure    	n/a  	n/a  	n/a  	1
217.026	0.399991263	BANDIT      	lure    	n/a  	n/a  	n/a  	1
217.426	0.466662404	TURNOVER    	lure    	n/a  	n/a  	n/a  	1
217.892	0.666657607	RESISTANCE  	lure    	n/a  	n/a  	n/a  	1
218.559	0.399994379	ROOD        	lure    	n/a  	n/a  	n/a  	1
218.959	0.583324601	DILL        	lure    	n/a  	n/a  	n/a  	1
219.542	0.616661322	PARISH      	lure    	n/a  	n/a  	n/a  	1
220.159	0.416656514	PROPHET     	lure    	n/a  	n/a  	n/a  	1
220.576	0.733323743	LAWMEN      	lure    	n/a  	n/a  	n/a  	1
221.309	0.753287103	SEAPLANE    	lure    	n/a  	n/a  	n/a  	1
222.062	0.730027282	ANTHILL     	lure    	n/a  	n/a  	n/a  	1
222.792	0.616716884	SENTINEL    	lure    	n/a  	n/a  	n/a  	1
223.409	0.566647385	OUTREACH    	lure    	n/a  	n/a  	n/a  	1
223.976	0.749941652	CRUCIFIX    	lure    	n/a  	n/a  	n/a  	1
224.726	0.783320697	TRUTH       	lure    	n/a  	n/a  	n/a  	1
225.509	0.333331945	SUBSIDY     	lure    	n/a  	n/a  	n/a  	1
225.842	0.416658933	ASSONANCE   	lure    	n/a  	n/a  	n/a  	1
226.259	0.65139574	HARMONY     	lure    	n/a  	n/a  	n/a  	1
226.91	n/a	CHEMISTRY   	lure    	n/a  	n/a  	n/a  	1
238.025	0.499996512	TRIBUNE     	lure    	n/a  	n/a  	n/a  	1
238.525	0.383327889	RYE         	lure    	n/a  	n/a  	n/a  	1
238.909	0.449993634	PIETY       	lure    	n/a  	n/a  	n/a  	1
239.359	0.416660522	DOORBELL    	lure    	n/a  	n/a  	n/a  	1
239.775	0.716712835	ORCHID      	lure    	n/a  	n/a  	n/a  	1
240.492	0.666602614	DRONE       	lure    	n/a  	n/a  	n/a  	1
241.159	0.750025418	FREEWAY     	lure    	n/a  	n/a  	n/a  	1
241.909	2.016601159	CRAYON      	long    	n/a  	n/a  	n/a  	1
243.925	0.466660157	PARODY      	lure    	n/a  	n/a  	n/a  	1
244.392	0.716653849	BOATHOUSE   	lure    	n/a  	n/a  	n/a  	1
245.109	0.699992017	EYESTRAIN   	lure    	n/a  	n/a  	n/a  	1
245.809	0.399990853	DECREASE    	lure    	n/a  	n/a  	n/a  	1
246.209	0.449992223	EXPLORER    	lure    	n/a  	n/a  	n/a  	1
246.659	0.349993641	EGGNOG      	lure    	n/a  	n/a  	n/a  	1
247.009	0.500319979	ITEM        	lure    	n/a  	n/a  	n/a  	1
247.509	0.633003093	SOMETHING   	lure    	n/a  	n/a  	n/a  	1
248.142	0.666659834	AFTERCARE   	lure    	n/a  	n/a  	n/a  	1
248.809	0.733320884	RUG         	lure    	n/a  	n/a  	n/a  	1
249.542	0.716703402	PERSONNEL   	lure    	n/a  	n/a  	n/a  	1
250.259	0.649941467	CANDLE      	short   	n/a  	n/a  	n/a  	1
250.909	0.350052756	ENTROPY     	lure    	n/a  	n/a  	n/a  	1
251.259	0.516602655	NOISE       	lure    	n/a  	n/a  	n/a  	1
251.775	0.616729613	GRAPH       	lure    	n/a  	n/a  	n/a  	1
252.392	0.616586008	BRIBERY     	lure    	n/a  	n/a  	n/a  	1
253.009	0.616712397	SLIVER      	lure    	n/a  	n/a  	n/a  	1
253.625	0.649939597	ZEST        	lure    	n/a  	n/a  	n/a  	1
254.275	0.766655269	HAT         	lure    	n/a  	n/a  	n/a  	1
255.042	0.683367819	COMEBACK    	lure    	n/a  	n/a  	n/a  	1
255.725	0.683335854	COMBAT      	lure    	n/a  	n/a  	n/a  	1
256.409	0.466600804	OBEDIENCE   	lure    	n/a  	n/a  	n/a  	1
256.875	0.520810638	CORONATION  	lure    	n/a  	n/a  	n/a  	1
257.396	0.429174576	LOOKUP      	lure    	n/a  	n/a  	n/a  	1
257.825	0.583329937	UNIFORMITY  	lure    	n/a  	n/a  	n/a  	1
258.408	1.016729245	CRANBERRY   	fruit   	829	2	2	1
259.425	0.649956464	OUTRAGE     	lure    	n/a  	n/a  	n/a  	1
260.075	0.569911877	REVIEWER    	lure    	n/a  	n/a  	n/a  	1
260.645	0.713417618	CATTLEMEN   	lure    	n/a  	n/a  	n/a  	1
261.358	0.499933439	GENETICIST  	lure    	n/a  	n/a  	n/a  	1
261.858	0.666656497	GUn/aUNNER   	lure    	n/a  	n/a  	n/a  	1
262.525	0.499992028	DELIVERY    	lure    	n/a  	n/a  	n/a  	1
263.025	0.716658616	CHINCHILLA  	lure    	n/a  	n/a  	n/a  	1
263.742	0.383323164	AUDITION    	lure    	n/a  	n/a  	n/a  	1
264.125	0.766661499	CARTILAGE   	lure    	n/a  	n/a  	n/a  	1
264.892	0.73332355	SHOELACE    	lure    	n/a  	n/a  	n/a  	1
265.625	0.599991442	WRONGDOER   	lure    	n/a  	n/a  	n/a  	1
266.225	0.566659326	WHEELCHAIR  	lure    	n/a  	n/a  	n/a  	1
266.792	0.616657049	SEAT        	short   	n/a  	n/a  	n/a  	1
267.408	0.466659245	SLED        	lure    	n/a  	n/a  	n/a  	1
267.875	0.366718418	EXCISION    	lure    	n/a  	n/a  	n/a  	1
268.242	0.449934566	SAILBOAT    	lure    	n/a  	n/a  	n/a  	1
268.692	0.46666346	DECREMENT   	lure    	n/a  	n/a  	n/a  	1
269.158	0.433366773	RAFT        	lure    	n/a  	n/a  	n/a  	1
269.592	0.600010279	PREMIERE    	lure    	n/a  	n/a  	n/a  	1
270.192	0.433262168	CAFE        	lure    	n/a  	n/a  	n/a  	1
270.625	0.433331063	RUDDER      	lure    	n/a  	n/a  	n/a  	1
271.058	0.616659718	INFIDELITY  	lure    	n/a  	n/a  	n/a  	1
271.675	0.466661473	TOOTHPICK   	lure    	n/a  	n/a  	n/a  	1
272.142	0.566655103	PRIVACY     	lure    	n/a  	n/a  	n/a  	1
272.708	0.55004708	IRRIGATION  	lure    	n/a  	n/a  	n/a  	1
273.258	0.41661068	ANALYZER    	lure    	n/a  	n/a  	n/a  	1
273.675	0.599986466	HANGOUT     	lure    	n/a  	n/a  	n/a  	1
274.275	0.533419616	PHARMACY    	lure    	n/a  	n/a  	n/a  	1
274.808	2.0165503	POLE        	long    	n/a  	n/a  	n/a  	1
276.825	0.433324296	THEOLOGIAN  	lure    	n/a  	n/a  	n/a  	1
277.258	0.533371021	TISSUE      	lure    	n/a  	n/a  	n/a  	1
277.792	0.616607873	WOMBAT      	lure    	n/a  	n/a  	n/a  	1
278.408	0.63338376	STEPFATHER  	lure    	n/a  	n/a  	n/a  	1
279.042	0.516659036	QUICKIE     	lure    	n/a  	n/a  	n/a  	1
279.558	0.369122148	FALLOFF     	lure    	n/a  	n/a  	n/a  	1
279.927	0.380809943	LANGUAGE    	lure    	n/a  	n/a  	n/a  	1
280.308	0.333386318	TRIPLET     	lure    	n/a  	n/a  	n/a  	1
280.642	0.549934682	MEDAL       	lure    	n/a  	n/a  	n/a  	1
281.191	0.36672023	WORKPIECE   	lure    	n/a  	n/a  	n/a  	1
281.558	0.733264617	MART        	lure    	n/a  	n/a  	n/a  	1
282.291	0.749989831	ROADBED     	lure    	n/a  	n/a  	n/a  	1
283.041	2.016643378	COAT        	long    	n/a  	n/a  	n/a  	1
285.058	0.400035344	LIEUTENANT  	lure    	n/a  	n/a  	n/a  	1
285.458	0.68333536	PERVERSITY  	lure    	n/a  	n/a  	n/a  	1
286.141	0.616601911	DETONATOR   	lure    	n/a  	n/a  	n/a  	1
286.758	0.350066892	LUXURY      	lure    	n/a  	n/a  	n/a  	1
287.108	0.416587845	SOMEBODY    	lure    	n/a  	n/a  	n/a  	1
287.525	0.45289148	LOCKUP      	lure    	n/a  	n/a  	n/a  	1
287.978	0.647093205	PLEASANTRY  	lure    	n/a  	n/a  	n/a  	1
288.625	0.499987678	CARNAGE     	lure    	n/a  	n/a  	n/a  	1
289.125	0.566662212	BALLROOM    	lure    	n/a  	n/a  	n/a  	1
289.691	0.633328407	PLENITUDE   	lure    	n/a  	n/a  	n/a  	1
290.325	0.750033379	INFLOW      	lure    	n/a  	n/a  	n/a  	1
291.075	0.633277444	BOILER      	lure    	n/a  	n/a  	n/a  	1
291.708	0.61665943	REGISTER    	short   	n/a  	n/a  	n/a  	1
292.325	0.733319492	LANDFALL    	lure    	n/a  	n/a  	n/a  	1
293.058	0.533372677	MOM         	lure    	n/a  	n/a  	n/a  	1
293.591	0.683334509	DRUDGERY    	lure    	n/a  	n/a  	n/a  	1
294.275	0.453202681	HACKSAW     	lure    	n/a  	n/a  	n/a  	1
294.728	0.399586628	CASSETTE    	lure    	n/a  	n/a  	n/a  	1
295.127	0.697134769	GAP         	lure    	n/a  	n/a  	n/a  	1
295.825	0.633323143	REPETITION  	lure    	n/a  	n/a  	n/a  	1
296.458	0.433325594	ORGANISM    	lure    	n/a  	n/a  	n/a  	1
296.891	0.333328364	ABSENCE     	lure    	n/a  	n/a  	n/a  	1
297.225	0.56666007	PULLEY      	lure    	n/a  	n/a  	n/a  	1
297.791	0.683321839	SQUEALER    	lure    	n/a  	n/a  	n/a  	1
298.475	0.583325874	GENTRY      	lure    	n/a  	n/a  	n/a  	1
299.058	0.616660753	BODYWORK    	lure    	n/a  	n/a  	n/a  	1
299.675	0.466702709	YARN        	lure    	n/a  	n/a  	n/a  	1
300.141	2.01659553	PICK        	long    	n/a  	n/a  	n/a  	1
302.158	0.333321765	WASP        	lure    	n/a  	n/a  	n/a  	1
302.491	0.333332458	CROPPER     	lure    	n/a  	n/a  	n/a  	1
302.825	0.383325855	PARENTHOOD  	lure    	n/a  	n/a  	n/a  	1
303.208	0.60004566	MAILBAG     	lure    	n/a  	n/a  	n/a  	1
303.808	0.450015899	CALORIE     	lure    	n/a  	n/a  	n/a  	1
304.258	0.599920428	AQUARIUM    	lure    	n/a  	n/a  	n/a  	1
304.858	0.566657656	DELEGATION  	lure    	n/a  	n/a  	n/a  	1
305.424	0.499992688	STOPOVER    	lure    	n/a  	n/a  	n/a  	1
305.924	0.749986899	VITAMIN     	lure    	n/a  	n/a  	n/a  	1
306.674	0.350053018	FLAGPOLE    	lure    	n/a  	n/a  	n/a  	1
307.025	0.599933731	REINDEER    	lure    	n/a  	n/a  	n/a  	1
307.624	0.749992773	BROTHER     	lure    	n/a  	n/a  	n/a  	1
308.374	0.616659056	ARCTIC      	short   	n/a  	n/a  	n/a  	1
308.991	0.749985389	QUIRK       	lure    	n/a  	n/a  	n/a  	1
309.741	0.466660067	REGISTRY    	lure    	n/a  	n/a  	n/a  	1
310.208	0.716656939	MARSH       	lure    	n/a  	n/a  	n/a  	1
310.924	0.666659539	SCULPTOR    	lure    	n/a  	n/a  	n/a  	1
311.591	0.533322303	FOXHOLE     	lure    	n/a  	n/a  	n/a  	1
312.124	0.583382403	MIDRIFF     	lure    	n/a  	n/a  	n/a  	1
312.708	0.666600003	ALBINO      	lure    	n/a  	n/a  	n/a  	1
313.374	0.700045961	LOBSTER     	lure    	n/a  	n/a  	n/a  	1
314.074	0.450607168	RIVERBED    	lure    	n/a  	n/a  	n/a  	1
314.525	0.367565015	CONQUEROR   	lure    	n/a  	n/a  	n/a  	1
314.893	0.465089956	AVOCADO     	lure    	n/a  	n/a  	n/a  	1
315.358	0.583323919	ABSTENTION  	lure    	n/a  	n/a  	n/a  	1
315.941	0.450051549	WAVELENGTH  	lure    	n/a  	n/a  	n/a  	1
316.391	1.016593704	PEAR        	fruit   	847	2	2	1
317.408	0.633369883	ICEMAN      	lure    	n/a  	n/a  	n/a  	1
318.041	0.649946223	STOWAWAY    	lure    	n/a  	n/a  	n/a  	1
318.691	0.63336752	FASTENER    	lure    	n/a  	n/a  	n/a  	1
319.324	0.399951319	WORKOUT     	lure    	n/a  	n/a  	n/a  	1
319.724	0.399988242	MISTLETOE   	lure    	n/a  	n/a  	n/a  	1
320.124	0.433331644	SURREALIST  	lure    	n/a  	n/a  	n/a  	1
320.558	0.583370541	DISPERSION  	lure    	n/a  	n/a  	n/a  	1
321.141	0.749945547	GONDOLA     	lure    	n/a  	n/a  	n/a  	1
321.891	0.583368197	BOWEL       	lure    	n/a  	n/a  	n/a  	1
322.474	0.316616261	TRACTOR     	lure    	n/a  	n/a  	n/a  	1
322.791	0.700048531	DEBILITATE  	lure    	n/a  	n/a  	n/a  	1
323.491	0.666600453	PEACETIME   	lure    	n/a  	n/a  	n/a  	1
324.158	0.733324573	MANGER      	lure    	n/a  	n/a  	n/a  	1
324.891	2.016639077	APRON       	long    	n/a  	n/a  	n/a  	1
326.908	0.599984698	MASON       	lure    	n/a  	n/a  	n/a  	1
327.507	0.720007508	DRAPERY     	lure    	n/a  	n/a  	n/a  	1
328.227	0.613311066	SYNAGOGUE   	lure    	n/a  	n/a  	n/a  	1
328.841	0.616659016	JOINER      	lure    	n/a  	n/a  	n/a  	1
329.457	0.383325478	GLUCOSE     	lure    	n/a  	n/a  	n/a  	1
329.841	0.499993602	MERCY       	lure    	n/a  	n/a  	n/a  	1
330.341	0.450039526	CLERGYMEN   	lure    	n/a  	n/a  	n/a  	1
330.791	0.41667446	PEACOCK     	lure    	n/a  	n/a  	n/a  	1
331.208	0.549935245	POSTCARD    	lure    	n/a  	n/a  	n/a  	1
331.757	0.416659249	DOLT        	lure    	n/a  	n/a  	n/a  	1
332.174	0.650044339	SCHOOLWORK  	lure    	n/a  	n/a  	n/a  	1
332.824	0.349986122	CONJUNCT    	lure    	n/a  	n/a  	n/a  	1
333.174	1.016607509	BANANA      	fruit   	n/a  	n/a  	2	0
334.191	0.704004341	GATEKEEPER  	lure    	7	2	n/a  	0
334.895	0.395977443	FOREMAN     	lure    	n/a  	n/a  	n/a  	1
335.291	0.666659095	CEREBRUM    	lure    	n/a  	n/a  	n/a  	1
335.957	0.583324774	PECAN       	lure    	n/a  	n/a  	n/a  	1
336.541	0.599986068	PENTAMETER  	lure    	n/a  	n/a  	n/a  	1
337.141	0.583333169	BROTH       	lure    	n/a  	n/a  	n/a  	1
337.724	0.666651486	TALC        	lure    	n/a  	n/a  	n/a  	1
338.391	0.5499951	SLIPPAGE    	lure    	n/a  	n/a  	n/a  	1
338.941	0.683374956	FOLLY       	lure    	n/a  	n/a  	n/a  	1
339.624	0.716655398	MEMENTO     	lure    	n/a  	n/a  	n/a  	1
340.341	0.649941264	AUTUMN      	lure    	n/a  	n/a  	n/a  	1
340.991	0.783325012	FINALIST    	lure    	n/a  	n/a  	n/a  	1
341.774	2.016637714	PYRAMID     	long    	n/a  	n/a  	n/a  	1
343.791	0.699987648	CONFECTION  	lure    	n/a  	n/a  	n/a  	1
344.491	0.733317572	SEAGULL     	lure    	n/a  	n/a  	n/a  	1
345.224	0.549997319	LOAFER      	lure    	n/a  	n/a  	n/a  	1
345.774	0.34999419	CARNATION   	lure    	n/a  	n/a  	n/a  	1
346.124	0.584018817	KING        	lure    	n/a  	n/a  	n/a  	1
346.708	0.752565525	SONNET      	lure    	n/a  	n/a  	n/a  	1
347.46	0.549568042	HAIRNET     	lure    	n/a  	n/a  	n/a  	1
348.01	0.513811835	SPOTTER     	lure    	n/a  	n/a  	n/a  	1
348.524	0.549993712	PEST        	lure    	n/a  	n/a  	n/a  	1
349.074	0.466660198	PRIVILEGE   	lure    	n/a  	n/a  	n/a  	1
349.541	0.399991236	PUFFER      	lure    	n/a  	n/a  	n/a  	1
349.941	0.616668437	CHROME      	short   	n/a  	n/a  	n/a  	1
350.557	0.749983891	SUn/aISE     	lure    	n/a  	n/a  	n/a  	1
351.307	0.366703615	SUGARCANE   	lure    	n/a  	n/a  	n/a  	1
351.674	0.516615257	FLOWERPOT   	lure    	n/a  	n/a  	n/a  	1
352.19	0.666722526	UNBELIEVER  	lure    	n/a  	n/a  	n/a  	1
352.857	0.383305365	SIDEBOARD   	lure    	n/a  	n/a  	n/a  	1
353.241	0.56661708	ANNUITY     	lure    	n/a  	n/a  	n/a  	1
353.807	0.583322841	PHRASEBOOK  	lure    	n/a  	n/a  	n/a  	1
354.39	0.533324474	NOVA        	lure    	n/a  	n/a  	n/a  	1
354.924	0.366663547	EXPECTANCY  	lure    	n/a  	n/a  	n/a  	1
355.29	0.700039259	TURMOIL     	lure    	n/a  	n/a  	n/a  	1
355.99	0.599985605	DRESSER     	lure    	n/a  	n/a  	n/a  	1
356.59	0.483278491	PROTEGEE    	lure    	n/a  	n/a  	n/a  	1
357.074	0.349996498	PRESCHOOL   	lure    	n/a  	n/a  	n/a  	1
357.424	0.583329518	SEMINAR     	lure    	n/a  	n/a  	n/a  	1
358.007	0.616659836	PISTOL      	short   	n/a  	n/a  	n/a  	1
358.624	0.51665574	SELECTION   	lure    	n/a  	n/a  	n/a  	1
359.14	0.399998593	SEA         	lure    	n/a  	n/a  	n/a  	1
359.54	0.3666635	CENTERLINE  	lure    	n/a  	n/a  	n/a  	1
359.907	0.416709605	IDEOLOGIST  	lure    	n/a  	n/a  	n/a  	1
360.324	0.733271883	POUCH       	lure    	n/a  	n/a  	n/a  	1
361.057	0.64999009	PETROL      	lure    	n/a  	n/a  	n/a  	1
361.707	0.616652574	RIBBING     	lure    	n/a  	n/a  	n/a  	1
362.324	0.349997014	MAYPOLE     	lure    	n/a  	n/a  	n/a  	1
362.674	0.349997089	REPUTATION  	lure    	n/a  	n/a  	n/a  	1
363.024	0.349992622	LUNCHEON    	lure    	n/a  	n/a  	n/a  	1
363.374	0.333334155	CAMISOLE    	lure    	n/a  	n/a  	n/a  	1
363.707	0.584107704	HERON       	lure    	n/a  	n/a  	n/a  	1
364.291	0.582542327	NICHE       	lure    	n/a  	n/a  	n/a  	1
364.874	0.333322914	SOBRIETY    	lure    	n/a  	n/a  	n/a  	1
365.207	0.416664039	LYRICIST    	lure    	n/a  	n/a  	n/a  	1
365.624	0.466658228	MORTICIAN   	lure    	n/a  	n/a  	n/a  	1
366.09	1.016653074	CRANBERRY   	fruit   	739	2	2	1
367.107	0.433324408	INTUITION   	lure    	n/a  	n/a  	n/a  	1
367.54	0.566714735	CALIBER     	lure    	n/a  	n/a  	n/a  	1
368.107	0.649938123	SOCIETY     	lure    	n/a  	n/a  	n/a  	1
368.757	0.683321115	PAGEANT     	lure    	n/a  	n/a  	n/a  	1
369.44	0.45005781	DRAMA       	lure    	n/a  	n/a  	n/a  	1
369.89	0.466603548	MOVIE       	lure    	n/a  	n/a  	n/a  	1
370.357	0.499987232	BIOGRAPHY   	lure    	n/a  	n/a  	n/a  	1
370.857	0.750050757	UPHOLSTERY  	lure    	n/a  	n/a  	n/a  	1
371.607	0.666597689	PURGATORY   	lure    	n/a  	n/a  	n/a  	1
372.274	0.68331804	WILDFOWL    	lure    	n/a  	n/a  	n/a  	1
372.957	0.666694782	MODESTY     	lure    	n/a  	n/a  	n/a  	1
373.624	0.616624337	SUBMERSION  	lure    	n/a  	n/a  	n/a  	1
374.24	2.016637314	LABEL       	long    	n/a  	n/a  	n/a  	1
376.257	0.749988867	ERASURE     	lure    	n/a  	n/a  	n/a  	1
377.007	0.366659743	MUTT        	lure    	n/a  	n/a  	n/a  	1
377.373	0.466657438	HATCHWAY    	lure    	n/a  	n/a  	n/a  	1
377.84	0.433330622	LOCKET      	lure    	n/a  	n/a  	n/a  	1
378.273	0.33332645	OAT         	lure    	n/a  	n/a  	n/a  	1
378.607	0.550507868	YARD        	lure    	n/a  	n/a  	n/a  	1
379.157	0.616144688	DISCUSSION  	lure    	n/a  	n/a  	n/a  	1
379.773	0.383327553	TITAN       	lure    	n/a  	n/a  	n/a  	1
380.157	0.566655145	HEARTBEAT   	lure    	n/a  	n/a  	n/a  	1
380.723	0.383327488	BOOKLET     	lure    	n/a  	n/a  	n/a  	1
381.107	0.400002532	CHICKWEED   	lure    	n/a  	n/a  	n/a  	1
381.507	0.549988251	SALTWATER   	lure    	n/a  	n/a  	n/a  	1
382.057	0.56670411	BORER       	lure    	n/a  	n/a  	n/a  	1
382.623	2.016596513	TRIPOD      	long    	n/a  	n/a  	n/a  	1
384.64	0.5839259	HYPOCRITE   	lure    	n/a  	n/a  	n/a  	1
385.224	0.586567167	UPTURN      	lure    	n/a  	n/a  	n/a  	1
385.811	0.333560764	HEMISPHERE  	lure    	n/a  	n/a  	n/a  	1
386.144	0.579247602	STALEMATE   	lure    	n/a  	n/a  	n/a  	1
386.723	0.349988364	BASIN       	lure    	n/a  	n/a  	n/a  	1
387.073	0.650001228	SUITOR      	lure    	n/a  	n/a  	n/a  	1
387.723	0.416656813	ETHICIST    	lure    	n/a  	n/a  	n/a  	1
388.14	0.649993216	MONASTERY   	lure    	n/a  	n/a  	n/a  	1
388.79	0.499989477	SCARECROW   	lure    	n/a  	n/a  	n/a  	1
389.29	0.466662288	LANTERN     	lure    	n/a  	n/a  	n/a  	1
389.757	0.566658897	RADIOGRAPH  	lure    	n/a  	n/a  	n/a  	1
390.323	0.416657667	DEFROSTER   	lure    	n/a  	n/a  	n/a  	1
390.74	0.616661713	PIN         	short   	n/a  	n/a  	n/a  	1
391.357	0.366653385	PLAYOFF     	lure    	n/a  	n/a  	n/a  	1
391.723	0.58332916	PROXY       	lure    	n/a  	n/a  	n/a  	1
392.307	0.666659659	CONCESSION  	lure    	n/a  	n/a  	n/a  	1
392.973	0.683385982	MILESTONE   	lure    	n/a  	n/a  	n/a  	1
393.657	0.633259417	RELOCATION  	lure    	n/a  	n/a  	n/a  	1
394.29	0.38332862	SENATOR     	lure    	n/a  	n/a  	n/a  	1
394.673	0.533326688	DEFAMATION  	lure    	n/a  	n/a  	n/a  	1
395.207	0.699989232	MOURNER     	lure    	n/a  	n/a  	n/a  	1
395.907	0.583362407	SORCERER    	lure    	n/a  	n/a  	n/a  	1
396.49	0.616620623	TITLE       	lure    	n/a  	n/a  	n/a  	1
397.107	0.666652805	PERISCOPE   	lure    	n/a  	n/a  	n/a  	1
397.773	0.616666314	PREDICATE   	lure    	n/a  	n/a  	n/a  	1
398.39	0.633318237	WHOOP       	lure    	n/a  	n/a  	n/a  	1
399.023	0.616664078	ARROW       	short   	n/a  	n/a  	n/a  	1
399.64	0.733318122	EXTRACTION  	lure    	n/a  	n/a  	n/a  	1
400.373	0.549993737	SHORTSTOP   	lure    	n/a  	n/a  	n/a  	1
400.923	0.349996929	FIBER       	lure    	n/a  	n/a  	n/a  	1
401.273	0.650038675	RASCAL      	lure    	n/a  	n/a  	n/a  	1
401.923	0.733276394	CUBICLE     	lure    	n/a  	n/a  	n/a  	1
402.656	0.583320403	RUNT        	lure    	n/a  	n/a  	n/a  	1
403.24	0.416718915	TENDENCY    	lure    	n/a  	n/a  	n/a  	1
403.656	0.566602153	CAPITALISM  	lure    	n/a  	n/a  	n/a  	1
404.223	0.333327022	BEARD       	lure    	n/a  	n/a  	n/a  	1
404.556	0.316722001	PARSON      	lure    	n/a  	n/a  	n/a  	1
404.873	0.583266004	MARQUEE     	lure    	n/a  	n/a  	n/a  	1
405.456	0.583325496	MINUTEMAN   	lure    	n/a  	n/a  	n/a  	1
406.04	0.566659057	DIFFERENCE  	lure    	n/a  	n/a  	n/a  	1
406.606	0.750046076	ADAPTATION  	lure    	n/a  	n/a  	n/a  	1
407.356	2.016580917	BELT        	long    	n/a  	n/a  	n/a  	1
409.373	0.316659793	TONIC       	lure    	n/a  	n/a  	n/a  	1
409.69	0.649987244	REPAST      	lure    	n/a  	n/a  	n/a  	1
410.34	0.466719322	DOORKNOB    	lure    	n/a  	n/a  	n/a  	1
410.806	0.44993933	ARMCHAIR    	lure    	n/a  	n/a  	n/a  	1
411.256	0.599995528	MONOGRAPH   	lure    	n/a  	n/a  	n/a  	1
411.856	0.666654461	INCREMENT   	lure    	n/a  	n/a  	n/a  	1
412.523	0.49999365	CASEBOOK    	lure    	n/a  	n/a  	n/a  	1
413.023	0.366659701	GOALPOST    	lure    	n/a  	n/a  	n/a  	1
413.39	0.349995263	ASSIGNMENT  	lure    	n/a  	n/a  	n/a  	1
413.74	0.350053185	CLAUSE      	lure    	n/a  	n/a  	n/a  	1
414.09	0.366602989	IMPOSTOR    	lure    	n/a  	n/a  	n/a  	1
414.456	0.333331396	LEMONADE    	lure    	n/a  	n/a  	n/a  	1
414.79	0.616656011	CHEESECAKE  	lure    	n/a  	n/a  	n/a  	1
415.406	1.016652433	STRAWBERRY  	fruit   	735	2	2	1
416.423	0.666657143	SNOWFLAKE   	lure    	n/a  	n/a  	n/a  	1
417.09	0.766650895	DELL        	lure    	n/a  	n/a  	n/a  	1
417.856	0.500001563	RIDGE       	lure    	n/a  	n/a  	n/a  	1
418.356	0.349990478	SHUTDOWN    	lure    	n/a  	n/a  	n/a  	1
418.706	0.533327021	TECH        	lure    	n/a  	n/a  	n/a  	1
419.24	0.416661261	THEORIST    	lure    	n/a  	n/a  	n/a  	1
419.656	0.450038987	ANNOUNCER   	lure    	n/a  	n/a  	n/a  	1
420.106	0.383277891	FATALITY    	lure    	n/a  	n/a  	n/a  	1
420.49	0.752412187	CATACLYSM   	lure    	n/a  	n/a  	n/a  	1
421.242	0.714282419	TRAINER     	lure    	n/a  	n/a  	n/a  	1
421.956	0.416616327	PASTRAMI    	lure    	n/a  	n/a  	n/a  	1
422.373	0.799987846	NUMERATOR   	lure    	n/a  	n/a  	n/a  	1
423.173	0.549986508	HORSESHOE   	lure    	n/a  	n/a  	n/a  	1
423.723	2.016705156	FOAM        	long    	n/a  	n/a  	n/a  	1
425.739	0.43326783	CATACOMB    	lure    	n/a  	n/a  	n/a  	1
426.173	0.333325749	CROQUET     	lure    	n/a  	n/a  	n/a  	1
426.506	0.649992457	GEYSER      	lure    	n/a  	n/a  	n/a  	1
427.156	0.416660697	SCANDAL     	lure    	n/a  	n/a  	n/a  	1
427.573	0.466660684	WINDOWPANE  	lure    	n/a  	n/a  	n/a  	1
428.039	0.483325625	HOUSEWORK   	lure    	n/a  	n/a  	n/a  	1
428.523	0.667556713	VISIBILITY  	lure    	n/a  	n/a  	n/a  	1
429.19	0.465758094	ACRONYM     	lure    	n/a  	n/a  	n/a  	1
429.656	0.700037102	AIRFLOW     	lure    	n/a  	n/a  	n/a  	1
430.356	0.566612823	FOXGLOVE    	lure    	n/a  	n/a  	n/a  	1
430.923	0.633323584	CALLER      	lure    	n/a  	n/a  	n/a  	1
431.556	0.683329841	MISSION     	lure    	n/a  	n/a  	n/a  	1
432.239	1.016694879	LEMON       	fruit   	878	2	2	1
433.256	0.333327547	DRAPER      	lure    	n/a  	n/a  	n/a  	1
433.589	0.566611699	GARDENER    	lure    	n/a  	n/a  	n/a  	1
434.156	0.4499932	NIGHTLINE   	lure    	n/a  	n/a  	n/a  	1
434.606	0.516716111	BOXER       	lure    	n/a  	n/a  	n/a  	1
435.123	0.666601033	LETDOWN     	lure    	n/a  	n/a  	n/a  	1
435.789	0.699993643	BALL        	lure    	n/a  	n/a  	n/a  	1
436.489	0.549990293	BEECH       	lure    	n/a  	n/a  	n/a  	1
437.039	0.699986091	LADDIE      	lure    	n/a  	n/a  	n/a  	1
437.739	0.60103404	PERMIT      	lure    	n/a  	n/a  	n/a  	1
438.34	0.417562034	AIRSPACE    	lure    	n/a  	n/a  	n/a  	1
438.758	0.581383105	SWIMSUIT    	lure    	n/a  	n/a  	n/a  	1
439.339	0.633324894	POSITIVISM  	lure    	n/a  	n/a  	n/a  	1
439.973	0.666661795	OVERTURE    	lure    	n/a  	n/a  	n/a  	1
440.639	0.616655357	MORNING     	short   	n/a  	n/a  	n/a  	1
441.256	0.366655661	BLENDER     	lure    	n/a  	n/a  	n/a  	1
441.623	0.366664926	MOBSTER     	lure    	n/a  	n/a  	n/a  	1
441.989	0.349997248	DIOXIDE     	lure    	n/a  	n/a  	n/a  	1
442.339	0.388120713	CUCUMBER    	lure    	n/a  	n/a  	n/a  	1
442.727	0.478563325	CLOWN       	lure    	n/a  	n/a  	n/a  	1
443.206	0.416741763	SNOWFALL    	lure    	n/a  	n/a  	n/a  	1
443.623	0.433218123	CENTRIFUGE  	lure    	n/a  	n/a  	n/a  	1
444.056	0.599988	PEACEMAKER  	lure    	n/a  	n/a  	n/a  	1
444.656	0.483327549	RHAPSODY    	lure    	n/a  	n/a  	n/a  	1
445.139	0.316707265	PAR         	lure    	n/a  	n/a  	n/a  	1
445.456	0.416615423	FOOTHOLD    	lure    	n/a  	n/a  	n/a  	1
445.872	0.616753119	DRUMBEAT    	lure    	n/a  	n/a  	n/a  	1
446.489	0.59989641	LADYBUG     	lure    	n/a  	n/a  	n/a  	1
447.089	0.716656906	CRAFTSMAN   	lure    	n/a  	n/a  	n/a  	1
447.806	0.483327921	RENOVATION  	lure    	n/a  	n/a  	n/a  	1
448.289	0.316661662	NUTRITION   	lure    	n/a  	n/a  	n/a  	1
448.606	0.616658377	MOUNTAIN    	short   	n/a  	n/a  	n/a  	1
449.222	0.69998738	TABLESPOON  	lure    	n/a  	n/a  	n/a  	1
449.922	0.466662486	WATERWAY    	lure    	n/a  	n/a  	n/a  	1
450.389	0.59999048	GYM         	lure    	n/a  	n/a  	n/a  	1
450.989	0.549991401	DESTROYER   	lure    	n/a  	n/a  	n/a  	1
451.539	0.38332577	COUNTY      	lure    	n/a  	n/a  	n/a  	1
451.922	0.449997976	VENDETTA    	lure    	n/a  	n/a  	n/a  	1
452.372	0.369716812	GUARDHOUSE  	lure    	n/a  	n/a  	n/a  	1
452.742	0.430269232	BUYER       	lure    	n/a  	n/a  	n/a  	1
453.172	0.649989937	WITHDRAWAL  	lure    	n/a  	n/a  	n/a  	1
453.822	0.633328496	MISSTEP     	lure    	n/a  	n/a  	n/a  	1
454.456	0.43332602	CAUSALITY   	lure    	n/a  	n/a  	n/a  	1
454.889	0.749987559	FOREWORD    	lure    	n/a  	n/a  	n/a  	1
455.639	0.699993596	SPLOTCH     	lure    	n/a  	n/a  	n/a  	1
456.339	0.600037362	WORKSHEET   	lure    	n/a  	n/a  	n/a  	1
456.939	0.666607647	REACTIVITY  	lure    	n/a  	n/a  	n/a  	1
457.606	0.349996882	LAMP        	lure    	n/a  	n/a  	n/a  	1
457.956	0.583325147	DROPLET     	lure    	n/a  	n/a  	n/a  	1
458.539	0.716658372	GAZER       	lure    	n/a  	n/a  	n/a  	1
459.256	0.649987176	MORTUARY    	lure    	n/a  	n/a  	n/a  	1
459.906	0.699988227	OUTSIDER    	lure    	n/a  	n/a  	n/a  	1
460.606	0.433332016	CONTIGUITY  	lure    	n/a  	n/a  	n/a  	1
461.039	0.649988054	ZOOLOGY     	lure    	n/a  	n/a  	n/a  	1
461.689	0.549993778	IMMORALITY  	lure    	n/a  	n/a  	n/a  	1
462.239	0.466659135	BONNET      	lure    	n/a  	n/a  	n/a  	1
462.706	0.51665961	PLASM       	lure    	n/a  	n/a  	n/a  	1
463.222	0.366662931	MOUTHWASH   	lure    	n/a  	n/a  	n/a  	1
463.589	0.483326488	RECEPTION   	lure    	n/a  	n/a  	n/a  	1
464.072	0.583322957	METABOLISM  	lure    	n/a  	n/a  	n/a  	1
464.656	n/a	PERPLEXITY  	lure    	n/a  	n/a  	n/a  	1