onset	duration	stim	cond	RT	resp	cresp	acc
4.046	0.414278692	GRINDER	lure	n/a	n/a	n/a	1
4.461	0.63332374	SANCTIMONY	lure	n/a	n/a	n/a	1
5.094	0.566705325	BOATMAN	lure	n/a	n/a	n/a	1
5.661	0.616610981	ANATOMY	lure	n/a	n/a	n/a	1
6.277	0.74999054	DROPPER	lure	n/a	n/a	n/a	1
7.027	0.483324119	CAREERISM	lure	n/a	n/a	n/a	1
7.51	2.016638308	COAT	long	n/a	n/a	n/a	1
9.527	0.59998731	NUISANCE	lure	n/a	n/a	n/a	1
10.127	0.483329916	MISFORTUNE	lure	n/a	n/a	n/a	1
10.61	0.649991103	WOLFHOUND	lure	n/a	n/a	n/a	1
11.26	0.616653913	FLAMINGO	lure	n/a	n/a	n/a	1
11.877	0.616663814	SIFTER	lure	n/a	n/a	n/a	1
12.494	0.71666258	ION	lure	n/a	n/a	n/a	1
13.21	0.55003991	DEVOTION	lure	n/a	n/a	n/a	1
13.76	0.6333247	AVIATOR	lure	n/a	n/a	n/a	1
14.394	0.516678143	APTITUDE	lure	n/a	n/a	n/a	1
14.91	0.349976699	OUTBREAK	lure	n/a	n/a	n/a	1
15.26	0.466657346	DOCKET	lure	n/a	n/a	n/a	1
15.727	0.65051286	ARROW	short	n/a	n/a	n/a	1
16.378	0.599415382	WELLSPRING	lure	n/a	n/a	n/a	1
16.977	0.666729454	MOMMY	lure	n/a	n/a	n/a	1
17.644	0.416590331	MARGIN	lure	n/a	n/a	n/a	1
18.06	0.750034867	TAILSPIN	lure	n/a	n/a	n/a	1
18.81	0.599945328	RATTLETRAP	lure	n/a	n/a	n/a	1
19.41	0.433327622	PERSON	lure	n/a	n/a	n/a	1
19.844	0.366661024	BREASTBONE	lure	n/a	n/a	n/a	1
20.21	0.483324028	LESSON	lure	n/a	n/a	n/a	1
20.694	0.399994862	BRIDGEWORK	lure	n/a	n/a	n/a	1
21.094	0.499992314	ANONYMITY	lure	n/a	n/a	n/a	1
21.594	0.466660977	SCAPULA	lure	n/a	n/a	n/a	1
22.06	0.416656931	PERSONAGE	lure	n/a	n/a	n/a	1
22.477	0.585055195	CONVICTION	lure	n/a	n/a	n/a	1
23.062	0.581600114	RIVERSIDE	lure	n/a	n/a	n/a	1
23.644	2.01664203	POLE	long	n/a	n/a	n/a	1
25.66	0.716652182	GENTILE	lure	n/a	n/a	n/a	1
26.377	0.483325505	MASTERSHIP	lure	n/a	n/a	n/a	1
26.86	0.59999332	POLYESTER	lure	n/a	n/a	n/a	1
27.46	0.500039557	STARLET	lure	n/a	n/a	n/a	1
27.96	0.63332369	PUPIL	lure	n/a	n/a	n/a	1
28.594	0.433279036	JAWBREAKER	lure	n/a	n/a	n/a	1
29.027	0.683378151	RECURRENCE	lure	n/a	n/a	n/a	1
29.71	0.533272821	REALITY	lure	n/a	n/a	n/a	1
30.243	0.433327133	FILTRATION	lure	n/a	n/a	n/a	1
30.677	0.583382077	CONFESSOR	lure	n/a	n/a	n/a	1
31.26	0.683263336	CONTENT	lure	n/a	n/a	n/a	1
31.943	0.616663485	REGISTER	short	n/a	n/a	n/a	1
32.56	0.749986947	SHIPMATE	lure	n/a	n/a	n/a	1
33.31	0.366662907	PASSBOOK	lure	n/a	n/a	n/a	1
33.677	0.516713186	SOPHOMORE	lure	n/a	n/a	n/a	1
34.193	0.633268159	HAIRDO	lure	n/a	n/a	n/a	1
34.827	0.366709576	BACKBEND	lure	n/a	n/a	n/a	1
35.193	0.316661	DRAGON	lure	n/a	n/a	n/a	1
35.51	0.466615784	TSUNAMI	lure	n/a	n/a	n/a	1
35.977	0.321156394	ROADWAY	lure	n/a	n/a	n/a	1
36.298	0.67888918	TRIBUTE	lure	n/a	n/a	n/a	1
36.977	0.533268253	ESCALATION	lure	n/a	n/a	n/a	1
37.51	0.766653389	WEEKEND	lure	n/a	n/a	n/a	1
38.277	0.666651652	MIDLAND	lure	n/a	n/a	n/a	1
38.943	0.549997308	FOXHOUND	lure	n/a	n/a	n/a	1
39.493	0.399992805	ANCHORMAN	lure	n/a	n/a	n/a	1
39.893	0.61666049	CANDLE	short	n/a	n/a	n/a	1
40.51	0.44999298	FRINGE	lure	n/a	n/a	n/a	1
40.96	0.483324987	ACCOUNTANT	lure	n/a	n/a	n/a	1
41.443	0.649992885	ROSEMARY	lure	n/a	n/a	n/a	1
42.093	0.549990955	DOCUMENT	lure	n/a	n/a	n/a	1
42.643	0.583320946	SUBTITLE	lure	n/a	n/a	n/a	1
43.227	0.700080268	GRADUATION	lure	n/a	n/a	n/a	1
43.927	0.416573893	PETITIONER	lure	n/a	n/a	n/a	1
44.343	0.433329113	TABLET	lure	n/a	n/a	n/a	1
44.777	0.783320644	COASTLINE	lure	n/a	n/a	n/a	1
45.56	0.666656749	DOORKEEPER	lure	n/a	n/a	n/a	1
46.227	0.433327996	GHETTO	lure	n/a	n/a	n/a	1
46.66	0.549993744	MORPHINE	lure	n/a	n/a	n/a	1
47.21	0.549991528	BACKGROUND	lure	n/a	n/a	n/a	1
47.76	0.649989289	PINWHEEL	lure	n/a	n/a	n/a	1
48.41	0.616660405	SEAT	short	n/a	n/a	n/a	1
49.027	0.566652418	ETHANOL	lure	n/a	n/a	n/a	1
49.593	0.521175719	ENTIRETY	lure	n/a	n/a	n/a	1
50.114	0.316560196	FOYER	lure	n/a	n/a	n/a	1
50.431	0.545582891	NIGHTHAWK	lure	n/a	n/a	n/a	1
50.977	0.533324825	ONSET	lure	n/a	n/a	n/a	1
51.51	0.366657527	BUILDUP	lure	n/a	n/a	n/a	1
51.877	0.449997647	PAUPER	lure	n/a	n/a	n/a	1
52.327	0.399990739	BELLBOY	lure	n/a	n/a	n/a	1
52.726	0.366661313	BARRICADE	lure	n/a	n/a	n/a	1
53.093	0.650038315	DOORNAIL	lure	n/a	n/a	n/a	1
53.743	0.733353452	HOSEPIPE	lure	n/a	n/a	n/a	1
54.477	0.499917321	PINEWOOD	lure	n/a	n/a	n/a	1
54.976	0.76665864	BIRDSEED	lure	n/a	n/a	n/a	1
55.743	0.716656638	LIMB	lure	n/a	n/a	n/a	1
56.46	0.570621814	COLLATION	lure	n/a	n/a	n/a	1
57.03	2.013598642	APRON	long	n/a	n/a	n/a	1
59.044	0.615734672	CARDIOGRAM	lure	n/a	n/a	n/a	1
59.66	0.649991657	SEMINARY	lure	n/a	n/a	n/a	1
60.31	0.683321789	STRAIT	lure	n/a	n/a	n/a	1
60.993	0.533326981	KEYPUNCH	lure	n/a	n/a	n/a	1
61.526	0.418958221	COURIER	lure	n/a	n/a	n/a	1
61.945	0.581568433	CLOVE	lure	n/a	n/a	n/a	1
62.527	0.632778395	NATURALIST	lure	n/a	n/a	n/a	1
63.16	0.766659901	HURLER	lure	n/a	n/a	n/a	1
63.926	0.333328858	LAMPSHADE	lure	n/a	n/a	n/a	1
64.26	0.766657	INFO	lure	n/a	n/a	n/a	1
65.026	0.3499943	TENET	lure	n/a	n/a	n/a	1
65.376	0.616659122	PIN	short	n/a	n/a	n/a	1
65.993	0.616655487	EPIDEMIC	lure	n/a	n/a	n/a	1
66.61	0.466660062	SEABOARD	lure	n/a	n/a	n/a	1
67.076	0.649993068	COMPANY	lure	n/a	n/a	n/a	1
67.726	0.533323682	PUBLICITY	lure	n/a	n/a	n/a	1
68.26	0.399995124	REGULATOR	lure	n/a	n/a	n/a	1
68.66	0.766653594	PUB	lure	n/a	n/a	n/a	1
69.426	0.583326027	OARSMAN	lure	n/a	n/a	n/a	1
70.01	0.499989853	SALESMAN	lure	n/a	n/a	n/a	1
70.51	0.633329094	SELF	lure	n/a	n/a	n/a	1
71.143	0.349995503	BISCUIT	lure	n/a	n/a	n/a	1
71.493	0.633323517	BOMBSIGHT	lure	n/a	n/a	n/a	1
72.126	0.717487047	LIVELIHOOD	lure	n/a	n/a	n/a	1
72.844	0.315831998	CHESTNUT	lure	n/a	n/a	n/a	1
73.16	1.016656869	ELDERBERRY	fruit	n/a	n/a	2	0
74.176	0.550046133	RUNWAY	lure	n/a	n/a	n/a	1
74.726	0.499932625	POWDERPUFF	lure	n/a	n/a	n/a	1
75.226	0.400053234	ARCHWAY	lure	n/a	n/a	n/a	1
75.626	0.416604885	CASSEROLE	lure	n/a	n/a	n/a	1
76.043	0.716656107	OVERKILL	lure	n/a	n/a	n/a	1
76.759	0.649989564	STOOL	lure	n/a	n/a	n/a	1
77.409	0.316711958	CHILI	lure	n/a	n/a	n/a	1
77.726	0.566604197	VELVET	lure	n/a	n/a	n/a	1
78.293	0.549996983	TEMPEST	lure	n/a	n/a	n/a	1
78.843	0.516660901	ROYALTY	lure	n/a	n/a	n/a	1
79.359	0.483326961	DRIFTWOOD	lure	n/a	n/a	n/a	1
79.843	0.633323054	COMPOSER	lure	n/a	n/a	n/a	1
80.476	0.349994483	HEADLIGHT	lure	n/a	n/a	n/a	1
80.826	2.01664033	CRAYON	long	n/a	n/a	n/a	1
82.843	0.383368835	GIBBERISH	lure	n/a	n/a	n/a	1
83.226	0.43328933	BARRIER	lure	n/a	n/a	n/a	1
83.659	0.599988961	CRUMB	lure	n/a	n/a	n/a	1
84.259	0.700033414	KITTEN	lure	n/a	n/a	n/a	1
84.959	0.483283519	SEMICIRCLE	lure	n/a	n/a	n/a	1
85.443	0.56665107	PETTICOAT	lure	n/a	n/a	n/a	1
86.009	0.433334374	EPISTLE	lure	n/a	n/a	n/a	1
86.443	0.516715402	PIGTAIL	lure	n/a	n/a	n/a	1
86.959	0.683268932	PHONECALL	lure	n/a	n/a	n/a	1
87.643	0.649988549	ENAMEL	lure	n/a	n/a	n/a	1
88.293	0.349994731	LATTICE	lure	n/a	n/a	n/a	1
88.643	1.016741311	LIME	fruit	820	2	2	1
89.659	0.566634776	SHIPLOAD	lure	n/a	n/a	n/a	1
90.226	0.666861312	VILLAGER	lure	n/a	n/a	n/a	1
90.893	0.416390443	POSTCODE	lure	n/a	n/a	n/a	1
91.309	0.549994429	PASTRY	lure	n/a	n/a	n/a	1
91.859	0.650046326	SOLDIERY	lure	n/a	n/a	n/a	1
92.509	0.416601397	LUMINOSITY	lure	n/a	n/a	n/a	1
92.926	0.416663566	SHOWMEN	lure	n/a	n/a	n/a	1
93.343	0.483329273	SPECTER	lure	n/a	n/a	n/a	1
93.826	0.683381453	DOORHANDLE	lure	n/a	n/a	n/a	1
94.509	0.69992518	SAILCLOTH	lure	n/a	n/a	n/a	1
95.209	0.633325364	URBANISM	lure	n/a	n/a	n/a	1
95.843	0.649995432	HORIZON	lure	n/a	n/a	n/a	1
96.493	0.76665793	METEOROID	lure	n/a	n/a	n/a	1
97.259	2.016636039	FOAM	long	n/a	n/a	n/a	1
99.276	0.550049421	ANNEX	lure	n/a	n/a	n/a	1
99.826	0.716595661	MOWER	lure	n/a	n/a	n/a	1
100.542	0.649995456	SPARKLER	lure	n/a	n/a	n/a	1
101.192	0.416662367	SLIPCOVER	lure	n/a	n/a	n/a	1
101.609	0.599988009	CATCHER	lure	n/a	n/a	n/a	1
102.209	0.516714319	CROCK	lure	n/a	n/a	n/a	1
102.726	0.533271286	EMBOLISM	lure	n/a	n/a	n/a	1
103.259	0.566769723	BLOODHOUND	lure	n/a	n/a	n/a	1
103.826	0.349885505	CAUSEWAY	lure	n/a	n/a	n/a	1
104.176	0.583319718	LOFT	lure	n/a	n/a	n/a	1
104.759	0.5999907	LOOTER	lure	n/a	n/a	n/a	1
105.359	0.366663243	CANOPY	lure	n/a	n/a	n/a	1
105.726	0.616659358	MOUNTAIN	short	n/a	n/a	n/a	1
106.342	0.683321753	INSERTION	lure	n/a	n/a	n/a	1
107.026	0.683326862	BRILLIANCY	lure	n/a	n/a	n/a	1
107.709	0.599993483	EYETEETH	lure	n/a	n/a	n/a	1
108.309	0.749986351	HYSTERIA	lure	n/a	n/a	n/a	1
109.059	0.716776944	ANTIQUITY	lure	n/a	n/a	n/a	1
109.776	0.316541181	COMPONENT	lure	n/a	n/a	n/a	1
110.092	0.549994596	BEVERAGE	lure	n/a	n/a	n/a	1
110.642	0.433326898	MISTRIAL	lure	n/a	n/a	n/a	1
111.076	0.716713978	GUNSLINGER	lure	n/a	n/a	n/a	1
111.792	0.750023181	SOFA	lure	n/a	n/a	n/a	1
112.542	0.466570281	UPSURGE	lure	n/a	n/a	n/a	1
113.009	0.651625579	ORGAN	lure	n/a	n/a	n/a	1
113.661	0.634572242	RUBRIC	lure	n/a	n/a	n/a	1
114.295	2.014593847	LABEL	long	n/a	n/a	n/a	1
116.31	0.565923259	AUNT	lure	n/a	n/a	n/a	1
116.876	0.349892408	SCIENTIST	lure	n/a	n/a	n/a	1
117.226	0.36669881	DOWRY	lure	n/a	n/a	n/a	1
117.592	0.566682139	MOTORCAR	lure	n/a	n/a	n/a	1
118.159	0.549925108	APOLOGIST	lure	n/a	n/a	n/a	1
118.709	0.316662143	MATRIX	lure	n/a	n/a	n/a	1
119.026	0.716662408	PREDICTOR	lure	n/a	n/a	n/a	1
119.742	0.316661612	PIPSQUEAK	lure	n/a	n/a	n/a	1
120.059	0.699989086	LOGGER	lure	n/a	n/a	n/a	1
120.759	0.416659948	SACRAMENT	lure	n/a	n/a	n/a	1
121.176	0.533328086	PINBALL	lure	n/a	n/a	n/a	1
121.709	0.683323521	ASSUMPTION	lure	n/a	n/a	n/a	1
122.392	0.499993322	WHOOPING	lure	n/a	n/a	n/a	1
122.892	2.016639238	BELT	long	n/a	n/a	n/a	1
124.909	0.733318956	PRINCE	lure	n/a	n/a	n/a	1
125.642	0.716658309	STATIONERY	lure	n/a	n/a	n/a	1
126.359	0.583323907	DRAGNET	lure	n/a	n/a	n/a	1
126.942	0.566660882	WRITER	lure	n/a	n/a	n/a	1
127.509	0.699986801	PRIESTHOOD	lure	n/a	n/a	n/a	1
128.209	0.749988024	SHORTY	lure	n/a	n/a	n/a	1
128.959	0.3333293	RECRUITER	lure	n/a	n/a	n/a	1
129.292	0.333391915	PLAGIARISM	lure	n/a	n/a	n/a	1
129.625	0.516600619	SCENARIO	lure	n/a	n/a	n/a	1
130.142	0.349995015	POSTURE	lure	n/a	n/a	n/a	1
130.492	0.599988931	MISPRINT	lure	n/a	n/a	n/a	1
131.092	0.61666042	CHROME	short	n/a	n/a	n/a	1
131.709	0.701535917	WAREHOUSE	lure	n/a	n/a	n/a	1
132.41	0.581777455	PRECEDENCE	lure	n/a	n/a	n/a	1
132.992	0.76665703	CAESAREAN	lure	n/a	n/a	n/a	1
133.759	0.616655335	DICE	lure	n/a	n/a	n/a	1
134.375	0.750051306	NONSENSE	lure	n/a	n/a	n/a	1
135.125	0.736759067	STEREOTYPE	lure	n/a	n/a	n/a	1
135.862	0.713161001	FLOWERBED	lure	n/a	n/a	n/a	1
136.575	0.420969428	RAINCOAT	lure	n/a	n/a	n/a	1
136.996	0.712344877	FROCK	lure	n/a	n/a	n/a	1
137.709	0.350042007	INQUIRY	lure	n/a	n/a	n/a	1
138.059	0.483285016	PLIGHT	lure	n/a	n/a	n/a	1
138.542	0.633365026	FOOTAGE	lure	n/a	n/a	n/a	1
139.175	0.333286469	PARADIGM	lure	n/a	n/a	n/a	1
139.509	0.61665969	ARCTIC	short	n/a	n/a	n/a	1
140.125	0.683368313	DISPERSAL	lure	n/a	n/a	n/a	1
140.809	0.400341615	PRETZEL	lure	n/a	n/a	n/a	1
141.209	0.566309401	OVATION	lure	n/a	n/a	n/a	1
141.775	0.399948244	FLAW	lure	n/a	n/a	n/a	1
142.175	0.733423209	AMBULANCE	lure	n/a	n/a	n/a	1
142.909	0.666557678	JUDGMENT	lure	n/a	n/a	n/a	1
143.575	0.716704231	SUBSTATION	lure	n/a	n/a	n/a	1
144.292	0.449988623	PRELUDE	lure	n/a	n/a	n/a	1
144.742	0.499946964	WOODSHED	lure	n/a	n/a	n/a	1
145.242	0.399998983	MISCHIEF	lure	n/a	n/a	n/a	1
145.642	0.333326274	BELL	lure	n/a	n/a	n/a	1
145.975	0.716656993	PIPETTE	lure	n/a	n/a	n/a	1
146.692	0.616660445	FANLIGHT	lure	n/a	n/a	n/a	1
147.309	0.550942151	BUCKSKIN	lure	n/a	n/a	n/a	1
147.859	1.065697153	ELDERBERRY	fruit	763	2	2	1
148.925	0.521442473	EARDRUM	lure	n/a	n/a	n/a	1
149.447	0.74520914	CARTOON	lure	n/a	n/a	n/a	1
150.192	0.599990887	KEEPSAKE	lure	n/a	n/a	n/a	1
150.792	0.550044524	FREEDMEN	lure	n/a	n/a	n/a	1
151.342	0.533278812	BRAINSTORM	lure	n/a	n/a	n/a	1
151.875	0.683321288	BUSYBODY	lure	n/a	n/a	n/a	1
152.558	0.516656898	RECAP	lure	n/a	n/a	n/a	1
153.075	0.499993244	KNOBBY	lure	n/a	n/a	n/a	1
153.575	0.549985227	RESPIRATOR	lure	n/a	n/a	n/a	1
154.125	0.416666769	GATOR	lure	n/a	n/a	n/a	1
154.542	0.499992224	SOLOIST	lure	n/a	n/a	n/a	1
155.042	0.366663012	LEGALISM	lure	n/a	n/a	n/a	1
155.408	0.333324782	ATHEISM	lure	n/a	n/a	n/a	1
155.742	0.616661808	MORNING	short	n/a	n/a	n/a	1
156.358	0.766657456	GUMSHOE	lure	n/a	n/a	n/a	1
157.125	0.549989628	STEALTH	lure	n/a	n/a	n/a	1
157.675	0.316664709	WALLPAPER	lure	n/a	n/a	n/a	1
157.992	0.483321107	BELIEF	lure	n/a	n/a	n/a	1
158.475	0.333330894	ANTITOXIN	lure	n/a	n/a	n/a	1
158.808	0.46665906	DERAILMENT	lure	n/a	n/a	n/a	1
159.275	0.449994691	SLIPPER	lure	n/a	n/a	n/a	1
159.725	0.3833304	SILVERWARE	lure	n/a	n/a	n/a	1
160.108	0.33332632	SANDAL	lure	n/a	n/a	n/a	1
160.442	0.333331808	BOOTLEGGER	lure	n/a	n/a	n/a	1
160.775	0.433323375	ANKLE	lure	n/a	n/a	n/a	1
161.208	0.400042383	RETRIAL	lure	n/a	n/a	n/a	1
161.608	0.749946427	DEPOSITOR	lure	n/a	n/a	n/a	1
162.358	0.499990131	ELLIPSE	lure	n/a	n/a	n/a	1
162.858	0.3666623	DISSIDENCE	lure	n/a	n/a	n/a	1
163.225	0.766654595	SCARFACE	lure	n/a	n/a	n/a	1
163.992	0.550038483	SOOTHSAYER	lure	n/a	n/a	n/a	1
164.542	1.016605392	STRAWBERRY	fruit	745	2	2	1
165.558	0.583323973	DECORATOR	lure	n/a	n/a	n/a	1
166.142	0.483327172	STAGNATION	lure	n/a	n/a	n/a	1
166.625	0.633328129	EXHIBITION	lure	n/a	n/a	n/a	1
167.258	0.466659275	WOODCRAFT	lure	n/a	n/a	n/a	1
167.725	0.349987021	VAPIDITY	lure	n/a	n/a	n/a	1
168.075	0.449998525	ANGLER	lure	n/a	n/a	n/a	1
168.525	0.666655299	RHINO	lure	n/a	n/a	n/a	1
169.192	0.633326205	GESTATION	lure	n/a	n/a	n/a	1
169.825	0.633321214	CANYON	lure	n/a	n/a	n/a	1
170.458	0.633389189	NEWSFLASH	lure	n/a	n/a	n/a	1
171.092	0.671014263	CANDIDATE	lure	n/a	n/a	n/a	1
171.763	0.415548173	ENVELOPE	lure	n/a	n/a	n/a	1
172.178	0.480020443	CELLULOSE	lure	n/a	n/a	n/a	1
172.658	2.016639568	TRIPOD	long	n/a	n/a	n/a	1
174.675	0.549989259	NAMEPLATE	lure	n/a	n/a	n/a	1
175.225	0.620210565	ALUMNI	lure	n/a	n/a	n/a	1
175.845	0.379782292	MANAGEMENT	lure	n/a	n/a	n/a	1
176.225	0.466780145	DOGCATCHER	lure	n/a	n/a	n/a	1
176.692	0.383204234	CROSSOVER	lure	n/a	n/a	n/a	1
177.075	0.449988017	LUNCHROOM	lure	n/a	n/a	n/a	1
177.525	0.733325989	WINGSPAN	lure	n/a	n/a	n/a	1
178.258	0.549992268	FLAGELLA	lure	n/a	n/a	n/a	1
178.808	0.383330601	EXCISE	lure	n/a	n/a	n/a	1
179.191	0.349996916	BOTANY	lure	n/a	n/a	n/a	1
179.541	0.449986797	VALOR	lure	n/a	n/a	n/a	1
179.991	0.366661055	SPACESHIP	lure	n/a	n/a	n/a	1
180.358	0.683370918	VIVACITY	lure	n/a	n/a	n/a	1
181.041	0.649947387	PISTOL	short	n/a	n/a	n/a	1
181.691	0.683327491	FARMHAND	lure	n/a	n/a	n/a	1
182.375	0.683323413	BICYCLIST	lure	n/a	n/a	n/a	1
183.058	0.699981877	GRUB	lure	n/a	n/a	n/a	1
183.758	0.500109497	POVERTY	lure	n/a	n/a	n/a	1
184.258	0.51655055	NATURE	lure	n/a	n/a	n/a	1
184.775	0.699990999	FRIGHT	lure	n/a	n/a	n/a	1
185.475	0.533359635	JEOPARDY	lure	n/a	n/a	n/a	1
186.008	0.38328968	TALKER	lure	n/a	n/a	n/a	1
186.391	0.599993172	ANTLER	lure	n/a	n/a	n/a	1
186.991	0.416659692	MUSCLEMAN	lure	n/a	n/a	n/a	1
187.408	0.43332736	SUET	lure	n/a	n/a	n/a	1
187.841	0.399993328	BENZENE	lure	n/a	n/a	n/a	1
188.241	0.733371934	ESCALATOR	lure	n/a	n/a	n/a	1
188.975	0.616666394	GRAIN	lure	n/a	n/a	n/a	1
189.591	1.018971862	GOOSEBERRY	fruit	687	2	2	1
190.61	0.45156624	FANATICISM	lure	n/a	n/a	n/a	1
191.062	0.696570269	OREGANO	lure	n/a	n/a	n/a	1
191.758	0.749459566	SPA	lure	n/a	n/a	n/a	1
192.508	0.366660413	BOREDOM	lure	n/a	n/a	n/a	1
192.875	0.783322741	DISGRACE	lure	n/a	n/a	n/a	1
193.658	0.316664863	CLOSEUP	lure	n/a	n/a	n/a	1
193.975	0.683324593	WHIMSEY	lure	n/a	n/a	n/a	1
194.658	0.666649738	PROVISION	lure	n/a	n/a	n/a	1
195.324	0.36666421	OMEN	lure	n/a	n/a	n/a	1
195.691	0.349998876	CAVEMAN	lure	n/a	n/a	n/a	1
196.041	0.46665942	PROFESSION	lure	n/a	n/a	n/a	1
196.508	0.466663275	GRIFFIN	lure	n/a	n/a	n/a	1
196.974	0.616738697	PASSPORT	lure	n/a	n/a	n/a	1
197.591	0.483304507	ENTHUSIASM	lure	n/a	n/a	n/a	1
198.075	2.049974309	PICK	long	n/a	n/a	n/a	1
200.124	0.550912464	SUBSECTION	lure	n/a	n/a	n/a	1
200.675	0.69900291	SCHEMA	lure	n/a	n/a	n/a	1
201.374	0.633328942	ANCESTRY	lure	n/a	n/a	n/a	1
202.008	0.550054972	DISTILLERY	lure	n/a	n/a	n/a	1
202.558	0.616588169	TRANSIENCE	lure	n/a	n/a	n/a	1
203.174	0.583326863	MAILBOX	lure	n/a	n/a	n/a	1
203.758	0.600606521	PUNCHER	lure	n/a	n/a	n/a	1
204.358	0.599426599	LANDROVER	lure	n/a	n/a	n/a	1
204.958	0.516611632	PLAGIARIST	lure	n/a	n/a	n/a	1
205.474	0.416717487	AUTOPSY	lure	n/a	n/a	n/a	1
205.891	0.466716009	AUDACITY	lure	n/a	n/a	n/a	1
206.358	2.016528293	PYRAMID	long	n/a	n/a	n/a	1
208.374	0.71664946	BIOLOGY	lure	n/a	n/a	n/a	1
209.091	0.333332719	BEAN	lure	n/a	n/a	n/a	1
209.424	0.499989314	DISHONESTY	lure	n/a	n/a	n/a	1
209.924	0.716662975	HANDSHAKE	lure	n/a	n/a	n/a	1
210.641	0.566657521	SEAWAY	lure	n/a	n/a	n/a	1
211.208	0.616659813	SWORD	lure	n/a	n/a	n/a	1
211.824	0.333327561	ANNEXATION	lure	n/a	n/a	n/a	1
212.158	0.800048025	SLEEVE	lure	n/a	n/a	n/a	1
212.958	0.683268561	LIABILITY	lure	n/a	n/a	n/a	1
213.641	0.399991081	FERN	lure	n/a	n/a	n/a	1
214.041	0.383328929	NETTLE	lure	n/a	n/a	n/a	1
214.424	1.016650328	APPLE	fruit	934	2	2	1
215.441	0.7167067	TWEED	lure	n/a	n/a	n/a	1
216.158	0.716605174	DEERSKIN	lure	n/a	n/a	n/a	1
216.874	0.549990625	OBSCURITY	lure	n/a	n/a	n/a	1
217.424	0.583325124	ALTERNATOR	lure	n/a	n/a	n/a	1
218.008	0.333332632	COMPOSITOR	lure	n/a	n/a	n/a	1
218.341	0.800046962	CASTLE	lure	n/a	n/a	n/a	1
219.141	0.683298858	WHIRLPOOL	lure	n/a	n/a	n/a	1
219.824	0.499954927	YACHT	lure	n/a	n/a	n/a	1
220.324	0.516724891	LIBERALISM	lure	n/a	n/a	n/a	1
220.841	0.483261571	ADMIRATION	lure	n/a	n/a	n/a	1
221.324	0.483377915	REALM	lure	n/a	n/a	n/a	1
221.807	0.450016063	MORSEL	lure	n/a	n/a	n/a	1
222.258	0.733298099	SUFFIX	lure	n/a	n/a	n/a	1
222.991	0.699941671	ROOF	lure	n/a	n/a	n/a	1
223.691	0.5666632	CAROL	lure	n/a	n/a	n/a	1
224.257	0.583318385	NOVELTY	lure	n/a	n/a	n/a	1
224.841	0.383329232	FLUIDITY	lure	n/a	n/a	n/a	1
225.224	0.399994066	SPEAKER	lure	n/a	n/a	n/a	1
225.624	0.316662592	DEPARTURE	lure	n/a	n/a	n/a	1
225.941	0.333329529	SCARF	lure	n/a	n/a	n/a	1
226.274	0.68332229	EXPULSION	lure	n/a	n/a	n/a	1
226.957	n/a	ANARCHIST	lure	n/a	n/a	n/a	1
238.024	0.399735464	SHOESTRING	lure	n/a	n/a	n/a	1
238.424	0.699994902	CAPTIVITY	lure	n/a	n/a	n/a	1
239.124	0.449991183	GRANDEUR	lure	n/a	n/a	n/a	1
239.574	0.599994841	LOOKOUT	lure	n/a	n/a	n/a	1
240.174	0.700768733	EMPIRICIST	lure	n/a	n/a	n/a	1
240.875	0.732539625	EROSION	lure	n/a	n/a	n/a	1
241.607	1.016648915	BANANA	fruit	831	2	2	1
242.624	0.69999343	BODY	lure	n/a	n/a	n/a	1
243.324	0.671149651	RUM	lure	n/a	n/a	n/a	1
243.995	0.778829697	LOGBOOK	lure	n/a	n/a	n/a	1
244.774	0.670313222	GUNMAN	lure	n/a	n/a	n/a	1
245.444	0.47967291	CLOVERLEAF	lure	n/a	n/a	n/a	1
245.924	0.533323435	SELLER	lure	n/a	n/a	n/a	1
246.457	0.533327428	SIGMA	lure	n/a	n/a	n/a	1
246.99	0.383325891	PHENOMENA	lure	n/a	n/a	n/a	1
247.374	0.349994832	MIGRATION	lure	n/a	n/a	n/a	1
247.724	0.616658038	POSTMASTER	lure	n/a	n/a	n/a	1
248.34	0.666662301	WELFARE	lure	n/a	n/a	n/a	1
249.007	0.583318255	ATTACHMENT	lure	n/a	n/a	n/a	1
249.59	0.399995299	INCIDENT	lure	n/a	n/a	n/a	1
249.99	2.016644371	PYRAMID	long	n/a	n/a	n/a	1
252.007	0.599983449	MARL	lure	n/a	n/a	n/a	1
252.607	0.649994164	FOOTPATH	lure	n/a	n/a	n/a	1
253.257	0.466665127	HARPER	lure	n/a	n/a	n/a	1
253.724	0.399991673	FLOATER	lure	n/a	n/a	n/a	1
254.124	0.499990104	PASSWORD	lure	n/a	n/a	n/a	1
254.624	0.366663225	ALTITUDE	lure	n/a	n/a	n/a	1
254.99	0.466653868	BEHALF	lure	n/a	n/a	n/a	1
255.457	0.516666794	CORTEX	lure	n/a	n/a	n/a	1
255.974	0.81665225	FRAMEWORK	lure	n/a	n/a	n/a	1
256.79	0.499997319	RATIONALE	lure	n/a	n/a	n/a	1
257.29	0.716652824	AHOY	lure	n/a	n/a	n/a	1
258.007	0.533328015	CORNSTARCH	lure	n/a	n/a	n/a	1
258.54	1.016652536	CANTELOUPE	fruit	802	2	2	1
259.557	0.633323953	WIDTH	lure	n/a	n/a	n/a	1
260.19	0.702098162	SAUCEPAN	lure	n/a	n/a	n/a	1
260.892	0.664550098	JOURNEYMAN	lure	n/a	n/a	n/a	1
261.557	0.401806679	STREAMER	lure	n/a	n/a	n/a	1
261.959	0.649566587	SQUAD	lure	n/a	n/a	n/a	1
262.608	0.698668662	JOVIALITY	lure	n/a	n/a	n/a	1
263.307	0.716590242	COWBIRD	lure	n/a	n/a	n/a	1
264.024	0.399991642	DANCER	lure	n/a	n/a	n/a	1
264.424	0.366662947	CENSORSHIP	lure	n/a	n/a	n/a	1
264.79	0.466718215	ARMORY	lure	n/a	n/a	n/a	1
265.257	0.449934471	HEADHUNTER	lure	n/a	n/a	n/a	1
265.707	0.316790085	CREVICE	lure	n/a	n/a	n/a	1
266.024	0.36653116	CARVER	lure	n/a	n/a	n/a	1
266.39	0.69999323	CATNIP	lure	n/a	n/a	n/a	1
267.09	0.616657219	CANDLE	short	n/a	n/a	n/a	1
267.707	0.516658685	DOORMEN	lure	n/a	n/a	n/a	1
268.223	0.499992721	TERRYCLOTH	lure	n/a	n/a	n/a	1
268.723	0.716656279	HAVOC	lure	n/a	n/a	n/a	1
269.44	0.716652329	HELMET	lure	n/a	n/a	n/a	1
270.157	0.516708145	CROISSANT	lure	n/a	n/a	n/a	1
270.673	0.616615499	BACKER	lure	n/a	n/a	n/a	1
271.29	0.683321915	BOMBSHELL	lure	n/a	n/a	n/a	1
271.973	0.616705081	EXULTATION	lure	n/a	n/a	n/a	1
272.59	0.34994758	BREATH	lure	n/a	n/a	n/a	1
272.94	0.716658589	DISK	lure	n/a	n/a	n/a	1
273.657	0.449991258	REPUBLIC	lure	n/a	n/a	n/a	1
274.107	0.649990785	OUTCAST	lure	n/a	n/a	n/a	1
274.757	0.566715251	NOTION	lure	n/a	n/a	n/a	1
275.323	1.02078032	PEACH	fruit	811	2	2	1
276.344	0.450562289	GOVERNOR	lure	n/a	n/a	n/a	1
276.795	0.379564005	MANKIND	lure	n/a	n/a	n/a	1
277.174	0.415675289	BUOYANCY	lure	n/a	n/a	n/a	1
277.59	0.316705947	MOGUL	lure	n/a	n/a	n/a	1
277.907	0.749941948	VIGILANTE	lure	n/a	n/a	n/a	1
278.657	0.549991731	CABIN	lure	n/a	n/a	n/a	1
279.207	0.78332341	HINDRANCE	lure	n/a	n/a	n/a	1
279.99	0.716659372	DAFFODIL	lure	n/a	n/a	n/a	1
280.707	0.766654371	ENZYME	lure	n/a	n/a	n/a	1
281.473	0.533327033	BLOWPIPE	lure	n/a	n/a	n/a	1
282.007	0.599988591	KNOB	lure	n/a	n/a	n/a	1
282.607	0.649992296	EXAMPLE	lure	n/a	n/a	n/a	1
283.257	0.433325581	JARGON	lure	n/a	n/a	n/a	1
283.69	2.016643433	TRIPOD	long	n/a	n/a	n/a	1
285.707	0.566653278	HORNPIPE	lure	n/a	n/a	n/a	1
286.273	0.401684558	BULL	lure	n/a	n/a	n/a	1
286.675	0.648299271	RATION	lure	n/a	n/a	n/a	1
287.323	0.64999498	LETTUCE	lure	n/a	n/a	n/a	1
287.973	0.602635334	MILLSTONE	lure	n/a	n/a	n/a	1
288.576	0.530741926	ZUCCHINI	lure	n/a	n/a	n/a	1
289.107	0.433267143	BRIDESMAID	lure	n/a	n/a	n/a	1
289.54	0.533367239	PRONOUN	lure	n/a	n/a	n/a	1
290.073	0.666615722	NEUTRALISM	lure	n/a	n/a	n/a	1
290.74	0.450038518	BANKRUPTCY	lure	n/a	n/a	n/a	1
291.19	0.466609219	INTRUDER	lure	n/a	n/a	n/a	1
291.656	2.016646452	COAT	long	n/a	n/a	n/a	1
293.673	0.550033413	PROVIDER	lure	n/a	n/a	n/a	1
294.223	0.549993605	FATHERHOOD	lure	n/a	n/a	n/a	1
294.773	0.499948003	AUTOLOADER	lure	n/a	n/a	n/a	1
295.273	0.466657625	DUSTER	lure	n/a	n/a	n/a	1
295.74	0.416728513	MANE	lure	n/a	n/a	n/a	1
296.156	0.633256908	WARRANTEE	lure	n/a	n/a	n/a	1
296.79	0.633325072	DOUGH	lure	n/a	n/a	n/a	1
297.423	0.650038538	SUBJECTION	lure	n/a	n/a	n/a	1
298.073	0.433281439	SUMMERTIME	lure	n/a	n/a	n/a	1
298.506	0.499988639	PASSAGE	lure	n/a	n/a	n/a	1
299.006	0.699991494	UNIT	lure	n/a	n/a	n/a	1
299.706	0.616660743	MORNING	short	n/a	n/a	n/a	1
300.323	0.349995541	COINAGE	lure	n/a	n/a	n/a	1
300.673	0.433323547	MONARCH	lure	n/a	n/a	n/a	1
301.106	0.483324365	JAILER	lure	n/a	n/a	n/a	1
301.59	0.483329365	CONTEXT	lure	n/a	n/a	n/a	1
302.073	0.683324383	REGULATION	lure	n/a	n/a	n/a	1
302.756	0.69998938	IMMERSION	lure	n/a	n/a	n/a	1
303.456	0.599989779	BENCH	lure	n/a	n/a	n/a	1
304.056	0.499992281	EARPLUG	lure	n/a	n/a	n/a	1
304.556	0.783324624	HOMEWORK	lure	n/a	n/a	n/a	1
305.34	0.649988309	AVALANCHE	lure	n/a	n/a	n/a	1
305.99	0.666660393	SPOILER	lure	n/a	n/a	n/a	1
306.656	0.583327483	CLARITY	lure	n/a	n/a	n/a	1
307.24	0.549992489	COUSIN	lure	n/a	n/a	n/a	1
307.79	0.616658625	ARROW	short	n/a	n/a	n/a	1
308.406	0.599988177	PURPOSE	lure	n/a	n/a	n/a	1
309.006	0.316663206	BURNER	lure	n/a	n/a	n/a	1
309.323	0.699990339	EARTHQUAKE	lure	n/a	n/a	n/a	1
310.023	0.633326483	CAPSULE	lure	n/a	n/a	n/a	1
310.656	0.683319982	FOOTSIE	lure	n/a	n/a	n/a	1
311.34	0.499998295	HOGSHEAD	lure	n/a	n/a	n/a	1
311.84	0.549987659	BREAKUP	lure	n/a	n/a	n/a	1
312.39	0.766656434	ASTROLOGY	lure	n/a	n/a	n/a	1
313.156	0.316772584	SESSION	lure	n/a	n/a	n/a	1
313.473	0.416551106	GUM	lure	n/a	n/a	n/a	1
313.889	0.349995162	ARK	lure	n/a	n/a	n/a	1
314.239	0.583325313	ROCKER	lure	n/a	n/a	n/a	1
314.823	0.533415221	TYCOON	lure	n/a	n/a	n/a	1
315.356	0.316569374	STREET	lure	n/a	n/a	n/a	1
315.673	0.516661016	TELEVISION	lure	n/a	n/a	n/a	1
316.189	0.633323675	CHROME	short	n/a	n/a	n/a	1
316.823	0.41666184	PALLBEARER	lure	n/a	n/a	n/a	1
317.239	0.650042316	HEMLINE	lure	n/a	n/a	n/a	1
317.889	0.316609376	LANDMARK	lure	n/a	n/a	n/a	1
318.206	0.599992819	CHISEL	lure	n/a	n/a	n/a	1
318.806	0.349992372	VISOR	lure	n/a	n/a	n/a	1
319.156	0.583325354	MONOGAMY	lure	n/a	n/a	n/a	1
319.739	0.516662028	ARGUMENT	lure	n/a	n/a	n/a	1
320.256	0.733325292	DIVULGENCE	lure	n/a	n/a	n/a	1
320.989	0.399990001	REJECTION	lure	n/a	n/a	n/a	1
321.389	0.735758441	OVERPRINT	lure	n/a	n/a	n/a	1
322.125	0.680890381	PATROLMAN	lure	n/a	n/a	n/a	1
322.806	0.616655064	SUPEREGO	lure	n/a	n/a	n/a	1
323.423	0.666662441	VESICLE	lure	n/a	n/a	n/a	1
324.089	0.499990731	FARMYARD	lure	n/a	n/a	n/a	1
324.589	0.616660151	PISTOL	short	n/a	n/a	n/a	1
325.206	0.41665483	HAIKU	lure	n/a	n/a	n/a	1
325.623	0.383418097	HEDONIST	lure	n/a	n/a	n/a	1
326.006	0.366634104	BREADFRUIT	lure	n/a	n/a	n/a	1
326.373	0.566596429	SHRINKAGE	lure	n/a	n/a	n/a	1
326.939	0.56666207	HANDICRAFT	lure	n/a	n/a	n/a	1
327.506	0.383328339	ASPECT	lure	n/a	n/a	n/a	1
327.889	0.466660138	SABRE	lure	n/a	n/a	n/a	1
328.356	0.449992283	REMINDER	lure	n/a	n/a	n/a	1
328.806	0.750041441	OVERLORD	lure	n/a	n/a	n/a	1
329.556	0.583268635	CHURCHYARD	lure	n/a	n/a	n/a	1
330.139	0.349999515	RESISTOR	lure	n/a	n/a	n/a	1
330.489	0.366663405	TRAINMAN	lure	n/a	n/a	n/a	1
330.856	0.683321824	MOONSHINE	lure	n/a	n/a	n/a	1
331.539	0.383324322	CLUBFOOT	lure	n/a	n/a	n/a	1
331.923	0.550047974	CONCLUSION	lure	n/a	n/a	n/a	1
332.473	0.533273611	RUBBER	lure	n/a	n/a	n/a	1
333.006	2.016640914	FOAM	long	n/a	n/a	n/a	1
335.023	0.699988666	PORCUPINE	lure	n/a	n/a	n/a	1
335.723	0.350061964	AGITATION	lure	n/a	n/a	n/a	1
336.073	0.74992144	SPORTSMAN	lure	n/a	n/a	n/a	1
336.822	0.749985773	SUPERNOVA	lure	n/a	n/a	n/a	1
337.572	0.666658994	OVERSEER	lure	n/a	n/a	n/a	1
338.239	0.466662315	PIPELINE	lure	n/a	n/a	n/a	1
338.706	0.5999912	DEPOSITORY	lure	n/a	n/a	n/a	1
339.306	0.33332798	PALEFACE	lure	n/a	n/a	n/a	1
339.639	0.383326851	EULOGY	lure	n/a	n/a	n/a	1
340.022	0.599994199	HABITAT	lure	n/a	n/a	n/a	1
340.622	0.399988593	STEEPLE	lure	n/a	n/a	n/a	1
341.022	2.016639003	CRAYON	long	n/a	n/a	n/a	1
343.039	0.599997043	STUPOR	lure	n/a	n/a	n/a	1
343.639	0.349989051	FOUNDATION	lure	n/a	n/a	n/a	1
343.989	0.366659128	IMPORTER	lure	n/a	n/a	n/a	1
344.356	0.499996684	WIDOWER	lure	n/a	n/a	n/a	1
344.856	0.516660088	WEEK	lure	n/a	n/a	n/a	1
345.372	0.599995883	BRAINWAVE	lure	n/a	n/a	n/a	1
345.972	0.666655283	BLOKE	lure	n/a	n/a	n/a	1
346.639	0.733321656	DISBARMENT	lure	n/a	n/a	n/a	1
347.372	0.716655522	COOKER	lure	n/a	n/a	n/a	1
348.089	0.583326646	GOATSKIN	lure	n/a	n/a	n/a	1
348.672	0.733322234	BUTTERMILK	lure	n/a	n/a	n/a	1
349.406	2.016637299	POLE	long	n/a	n/a	n/a	1
351.422	0.616659251	DIRECTORY	lure	n/a	n/a	n/a	1
352.039	0.418008606	TRACHEA	lure	n/a	n/a	n/a	1
352.457	0.766343001	TOPAZ	lure	n/a	n/a	n/a	1
353.223	0.43229396	IMPUDENCE	lure	n/a	n/a	n/a	1
353.656	0.583323862	PHOTOFLASH	lure	n/a	n/a	n/a	1
354.239	0.4999936	SPOOF	lure	n/a	n/a	n/a	1
354.739	0.366662478	EARTHLING	lure	n/a	n/a	n/a	1
355.106	0.499990743	LIBERALITY	lure	n/a	n/a	n/a	1
355.606	0.433329381	POLICEMAN	lure	n/a	n/a	n/a	1
356.039	0.599991082	INCREASE	lure	n/a	n/a	n/a	1
356.639	0.74998973	DAIRY	lure	n/a	n/a	n/a	1
357.389	0.533323734	PRESIDENCY	lure	n/a	n/a	n/a	1
357.922	0.649992304	PIN	short	n/a	n/a	n/a	1
358.572	0.499993194	MIDPOINT	lure	n/a	n/a	n/a	1
359.072	0.516659001	GESTURE	lure	n/a	n/a	n/a	1
359.589	0.433324499	POSTULATE	lure	n/a	n/a	n/a	1
360.022	0.566658804	EYEWASH	lure	n/a	n/a	n/a	1
360.589	0.549993935	GRAPHITE	lure	n/a	n/a	n/a	1
361.139	0.649991076	MINK	lure	n/a	n/a	n/a	1
361.789	0.483325355	ESPIONAGE	lure	n/a	n/a	n/a	1
362.272	0.433329268	SUn/aAY	lure	n/a	n/a	n/a	1
362.705	0.399994004	DISHWASHER	lure	n/a	n/a	n/a	1
363.105	0.399993256	ALBUM	lure	n/a	n/a	n/a	1
363.505	0.76665688	INTENSITY	lure	n/a	n/a	n/a	1
364.272	0.316662146	GREED	lure	n/a	n/a	n/a	1
364.589	0.733321738	DOUGHNUT	lure	n/a	n/a	n/a	1
365.322	0.516655382	CRYBABY	lure	n/a	n/a	n/a	1
365.839	1.016651327	STRAWBERRY	fruit	696	2	2	1
366.855	0.733329159	ONION	lure	n/a	n/a	n/a	1
367.589	0.399992851	TREND	lure	n/a	n/a	n/a	1
367.989	0.333329872	TAXATION	lure	n/a	n/a	n/a	1
368.322	0.499987987	HOUSEBOAT	lure	n/a	n/a	n/a	1
368.822	0.633328316	TUTORIAL	lure	n/a	n/a	n/a	1
369.455	0.549991057	PEEPER	lure	n/a	n/a	n/a	1
370.005	0.483327699	RAILWAY	lure	n/a	n/a	n/a	1
370.489	0.433327326	PIE	lure	n/a	n/a	n/a	1
370.922	0.566659927	BOUILLON	lure	n/a	n/a	n/a	1
371.489	0.733323154	NOTEPAPER	lure	n/a	n/a	n/a	1
372.222	0.383328252	ECONOMIST	lure	n/a	n/a	n/a	1
372.605	0.699988475	TINDERBOX	lure	n/a	n/a	n/a	1
373.305	0.383330455	STINGRAY	lure	n/a	n/a	n/a	1
373.689	1.016652005	STRAWBERRY	fruit	814	2	2	1
374.705	0.683321912	MANATEE	lure	n/a	n/a	n/a	1
375.389	0.633324928	PROPULSION	lure	n/a	n/a	n/a	1
376.022	0.599992319	ENGAGEMENT	lure	n/a	n/a	n/a	1
376.622	0.616654293	LATENCY	lure	n/a	n/a	n/a	1
377.239	0.349997708	WEAVER	lure	n/a	n/a	n/a	1
377.589	0.566655839	CORDUROY	lure	n/a	n/a	n/a	1
378.155	0.633325224	INITIATION	lure	n/a	n/a	n/a	1
378.789	0.499993057	CAPITAL	lure	n/a	n/a	n/a	1
379.289	0.683326586	PREDICTION	lure	n/a	n/a	n/a	1
379.972	0.716653629	COUNCILMAN	lure	n/a	n/a	n/a	1
380.689	0.499992348	EPIGRAM	lure	n/a	n/a	n/a	1
381.189	0.69999127	SUPPRESSOR	lure	n/a	n/a	n/a	1
381.889	0.616656826	SEAT	short	n/a	n/a	n/a	1
382.505	0.383375149	TENANT	lure	n/a	n/a	n/a	1
382.889	0.366661167	SHIPMENT	lure	n/a	n/a	n/a	1
383.255	0.333284286	TAKER	lure	n/a	n/a	n/a	1
383.588	0.583325064	NEWSREADER	lure	n/a	n/a	n/a	1
384.172	0.349994857	MARROW	lure	n/a	n/a	n/a	1
384.522	0.33337318	VISITOR	lure	n/a	n/a	n/a	1
384.855	0.516615382	PEWTER	lure	n/a	n/a	n/a	1
385.372	0.416657938	FALCON	lure	n/a	n/a	n/a	1
385.788	0.633325896	TRICKERY	lure	n/a	n/a	n/a	1
386.422	0.583325465	RHINESTONE	lure	n/a	n/a	n/a	1
387.005	0.399988844	SCROOGE	lure	n/a	n/a	n/a	1
387.405	0.650056924	PEBBLE	lure	n/a	n/a	n/a	1
388.055	0.683264962	BANDWAGON	lure	n/a	n/a	n/a	1
388.738	0.683368712	INSULATOR	lure	n/a	n/a	n/a	1
389.422	0.599998287	RIFLEMEN	lure	n/a	n/a	n/a	1
390.022	0.616603525	ARCTIC	short	n/a	n/a	n/a	1
390.638	0.633324587	SAVER	lure	n/a	n/a	n/a	1
391.272	0.43332606	REMODEL	lure	n/a	n/a	n/a	1
391.705	0.670551062	HEROISM	lure	n/a	n/a	n/a	1
392.376	0.450563871	ADOPTION	lure	n/a	n/a	n/a	1
392.826	0.345533881	RAGTIME	lure	n/a	n/a	n/a	1
393.172	0.366660223	NEWSPRINT	lure	n/a	n/a	n/a	1
393.538	0.433326654	WIZARDRY	lure	n/a	n/a	n/a	1
393.972	0.316661624	GENDER	lure	n/a	n/a	n/a	1
394.288	0.383327017	STARTER	lure	n/a	n/a	n/a	1
394.672	0.749992261	SURGEON	lure	n/a	n/a	n/a	1
395.422	0.76665585	PROFUSION	lure	n/a	n/a	n/a	1
396.188	0.649987351	FILAMENT	lure	n/a	n/a	n/a	1
396.838	0.583386192	ARCHERY	lure	n/a	n/a	n/a	1
397.422	0.649930395	REDHEAD	lure	n/a	n/a	n/a	1
398.072	0.699986571	VICTORY	lure	n/a	n/a	n/a	1
398.772	2.016646229	PICK	long	n/a	n/a	n/a	1
400.788	0.366653727	PEAL	lure	n/a	n/a	n/a	1
401.155	0.699993577	FEATHERBED	lure	n/a	n/a	n/a	1
401.855	0.599990787	REALTOR	lure	n/a	n/a	n/a	1
402.455	0.616708825	EXPERIMENT	lure	n/a	n/a	n/a	1
403.072	0.433324561	GROCERY	lure	n/a	n/a	n/a	1
403.505	0.466612992	NEWCOMER	lure	n/a	n/a	n/a	1
403.972	0.516714142	ANAGRAM	lure	n/a	n/a	n/a	1
404.488	0.583272055	CRUSADE	lure	n/a	n/a	n/a	1
405.072	0.616655573	YEAST	lure	n/a	n/a	n/a	1
405.688	0.366709098	TERRITORY	lure	n/a	n/a	n/a	1
406.055	0.533340083	TRIANGLE	lure	n/a	n/a	n/a	1
406.588	0.633264011	ABSORPTION	lure	n/a	n/a	n/a	1
407.221	0.616658402	MOUNTAIN	short	n/a	n/a	n/a	1
407.838	0.416720076	PUMICE	lure	n/a	n/a	n/a	1
408.255	0.433321561	CHERUB	lure	n/a	n/a	n/a	1
408.688	0.533269881	FLUKE	lure	n/a	n/a	n/a	1
409.221	0.649986514	GLEE	lure	n/a	n/a	n/a	1
409.871	0.437995027	GOLF	lure	n/a	n/a	n/a	1
410.309	0.695329977	OFFICE	lure	n/a	n/a	n/a	1
411.005	0.533324327	BATCH	lure	n/a	n/a	n/a	1
411.538	0.51665777	RINGMASTER	lure	n/a	n/a	n/a	1
412.055	0.466661731	FIELDSMAN	lure	n/a	n/a	n/a	1
412.521	0.516658517	RIDDANCE	lure	n/a	n/a	n/a	1
413.038	0.416661081	MYTH	lure	n/a	n/a	n/a	1
413.455	0.518605428	BULKHEAD	lure	n/a	n/a	n/a	1
413.973	0.414713746	MEDIATION	lure	n/a	n/a	n/a	1
414.388	0.583327403	DEFINITION	lure	n/a	n/a	n/a	1
414.971	0.683320847	REVOCATION	lure	n/a	n/a	n/a	1
415.655	2.016640541	APRON	long	n/a	n/a	n/a	1
417.671	0.749989031	CONFLICT	lure	n/a	n/a	n/a	1
418.421	0.552049279	PLANNER	lure	n/a	n/a	n/a	1
418.973	0.73126705	VINEGAR	lure	n/a	n/a	n/a	1
419.705	0.366771754	RECOUNT	lure	n/a	n/a	n/a	1
420.071	0.566544126	DAMSEL	lure	n/a	n/a	n/a	1
420.638	0.500108694	CHECKUP	lure	n/a	n/a	n/a	1
421.138	0.799872288	LOCALE	lure	n/a	n/a	n/a	1
421.938	0.69999534	CREAMERY	lure	n/a	n/a	n/a	1
422.638	0.383396803	VASELINE	lure	n/a	n/a	n/a	1
423.021	0.399926349	POTENCY	lure	n/a	n/a	n/a	1
423.421	0.733399696	ICEHOUSE	lure	n/a	n/a	n/a	1
424.155	0.616575317	REGISTER	short	n/a	n/a	n/a	1
424.771	0.466665738	CYLINDER	lure	n/a	n/a	n/a	1
425.238	0.616770329	HASP	lure	n/a	n/a	n/a	1
425.855	0.516545375	FEET	lure	n/a	n/a	n/a	1
426.371	0.633327424	FLASHLIGHT	lure	n/a	n/a	n/a	1
427.005	0.53332371	WINDSCREEN	lure	n/a	n/a	n/a	1
427.538	0.566731185	PRECEDENT	lure	n/a	n/a	n/a	1
428.105	0.583312468	STOVEPIPE	lure	n/a	n/a	n/a	1
428.688	0.487834075	WHISKY	lure	n/a	n/a	n/a	1
429.176	0.478818625	MULTITUDE	lure	n/a	n/a	n/a	1
429.655	0.766596031	DIALOGUE	lure	n/a	n/a	n/a	1
430.421	0.366703816	UNDERDOG	lure	n/a	n/a	n/a	1
430.788	0.416677274	ELONGATION	lure	n/a	n/a	n/a	1
431.205	0.416598618	MONOLOGIST	lure	n/a	n/a	n/a	1
431.621	0.433328288	ALLEGATION	lure	n/a	n/a	n/a	1
432.054	0.466657535	HAIRBRUSH	lure	n/a	n/a	n/a	1
432.521	2.016639714	LABEL	long	n/a	n/a	n/a	1
434.538	0.516733118	COSMOLOGY	lure	n/a	n/a	n/a	1
435.055	0.616585681	CADDY	lure	n/a	n/a	n/a	1
435.671	0.533374266	MEMORY	lure	n/a	n/a	n/a	1
436.204	0.349945789	PERIOD	lure	n/a	n/a	n/a	1
436.554	0.43332774	WINDMILL	lure	n/a	n/a	n/a	1
436.988	0.733324038	OAK	lure	n/a	n/a	n/a	1
437.721	0.733319752	CANAL	lure	n/a	n/a	n/a	1
438.454	0.733326736	BOBCAT	lure	n/a	n/a	n/a	1
439.188	0.683320962	GRID	lure	n/a	n/a	n/a	1
439.871	0.753886647	EXTREMITY	lure	n/a	n/a	n/a	1
440.625	0.746092072	CABOODLE	lure	n/a	n/a	n/a	1
441.371	2.016639591	BELT	long	n/a	n/a	n/a	1
443.388	0.683323373	BROOMSTICK	lure	n/a	n/a	n/a	1
444.071	0.635856844	BORROWER	lure	n/a	n/a	n/a	1
444.707	0.330796905	PROPERTY	lure	n/a	n/a	n/a	1
445.038	0.399993595	PLAINTIFF	lure	n/a	n/a	n/a	1
445.438	0.666715694	CONVENTION	lure	n/a	n/a	n/a	1
446.104	0.39993635	VOCALISM	lure	n/a	n/a	n/a	1
446.504	0.683326929	CHITCHAT	lure	n/a	n/a	n/a	1
447.188	0.549990116	NODE	lure	n/a	n/a	n/a	1
447.738	0.633325742	FLAGSTAFF	lure	n/a	n/a	n/a	1
448.371	0.583377152	POLLUTION	lure	n/a	n/a	n/a	1
448.954	0.366609005	HEADLAND	lure	n/a	n/a	n/a	1
449.321	0.533319127	COUPLER	lure	n/a	n/a	n/a	1
449.854	1.01665672	MELON	fruit	664	2	2	1
450.871	0.566662095	PAPERBOY	lure	n/a	n/a	n/a	1
451.438	0.516657457	LEGIBILITY	lure	n/a	n/a	n/a	1
451.954	0.633322043	ARCHBISHOP	lure	n/a	n/a	n/a	1
452.588	0.566658471	OLIGARCHY	lure	n/a	n/a	n/a	1
453.154	0.599986871	MUDSLINGER	lure	n/a	n/a	n/a	1
453.754	0.733331274	SABLE	lure	n/a	n/a	n/a	1
454.487	0.766653334	SCHOOLBOY	lure	n/a	n/a	n/a	1
455.254	0.533328326	ATTITUDE	lure	n/a	n/a	n/a	1
455.787	0.600036733	FILMSTRIP	lure	n/a	n/a	n/a	1
456.388	0.766608284	SAFARI	lure	n/a	n/a	n/a	1
457.154	0.5333288	HYPERBOLA	lure	n/a	n/a	n/a	1
457.687	0.533323424	OILSKIN	lure	n/a	n/a	n/a	1
458.221	0.433325475	HOSPICE	lure	n/a	n/a	n/a	1
458.654	0.633322954	EXPEDIENCE	lure	n/a	n/a	n/a	1
459.287	0.583326468	EXISTENCE	lure	n/a	n/a	n/a	1
459.871	0.51665968	COMMENTARY	lure	n/a	n/a	n/a	1
460.387	0.383328117	SPILLWAY	lure	n/a	n/a	n/a	1
460.771	0.683326163	TAKEOFF	lure	n/a	n/a	n/a	1
461.454	0.733323702	ARISTOCRAT	lure	n/a	n/a	n/a	1
462.187	0.533326311	HANDRAIL	lure	n/a	n/a	n/a	1
462.721	0.616654921	ACCEPTANCE	lure	n/a	n/a	n/a	1
463.337	0.650045973	MNEMONIC	lure	n/a	n/a	n/a	1
463.987	0.403169273	BURGLAR	lure	n/a	n/a	n/a	1
464.391	0.380095163	INCENTIVE	lure	n/a	n/a	n/a	1
464.771	n/a	TURNIP	lure	n/a	n/a	n/a	1