onset	duration	stim	cond	RT	resp	cresp	acc
4.044	0.380128595	MILDEW	lure	n/a	n/a	n/a	1
4.424	0.666655107	TYPEWRITER	lure	n/a	n/a	n/a	1
5.091	0.683318737	INVENTORY	lure	n/a	n/a	n/a	1
5.774	0.366713513	DETONATOR	lure	n/a	n/a	n/a	1
6.141	0.649980783	FIGHTER	lure	n/a	n/a	n/a	1
6.791	0.63469797	PISTOL	lure	n/a	n/a	n/a	1
7.426	0.698683134	HEROISM	lure	n/a	n/a	n/a	1
8.125	2.018485418	TRUCK	long	n/a	n/a	n/a	1
10.143	0.667568236	WOODMAN	lure	n/a	n/a	n/a	1
10.811	0.447135606	EASTERNER	lure	n/a	n/a	n/a	1
11.258	0.666710564	CHILDHOOD	lure	n/a	n/a	n/a	1
11.924	0.749931595	LANDROVER	lure	n/a	n/a	n/a	1
12.674	0.566659824	ROLLER	lure	n/a	n/a	n/a	1
13.241	0.466658185	LAVA	lure	n/a	n/a	n/a	1
13.708	0.499992139	BRINE	lure	n/a	n/a	n/a	1
14.208	0.750040254	CONTRACTOR	lure	n/a	n/a	n/a	1
14.958	0.366610683	DEFENDANT	lure	n/a	n/a	n/a	1
15.324	0.602301779	HABITATION	lure	n/a	n/a	n/a	1
15.927	0.597683312	PATROLMEN	lure	n/a	n/a	n/a	1
16.524	1.049984364	WATERMELON	fruit	n/a	n/a	2	0
17.574	0.466652302	RESTRAINT	lure	n/a	n/a	n/a	1
18.041	0.466659502	SALVATION	lure	n/a	n/a	n/a	1
18.508	0.433333191	RETRIEVAL	lure	n/a	n/a	n/a	1
18.941	0.316718576	LEGALITY	lure	n/a	n/a	n/a	1
19.258	0.401866557	ROTATION	lure	n/a	n/a	n/a	1
19.66	0.514729974	WRINGER	lure	n/a	n/a	n/a	1
20.174	0.60004721	HANDSTAND	lure	n/a	n/a	n/a	1
20.774	0.683270285	DRAWSTRING	lure	n/a	n/a	n/a	1
21.458	0.749988792	GLIMPSE	lure	n/a	n/a	n/a	1
22.208	0.750044304	SACRAMENT	lure	n/a	n/a	n/a	1
22.958	0.716659315	SCRIBE	lure	n/a	n/a	n/a	1
23.674	0.483267758	DRUMHEAD	lure	n/a	n/a	n/a	1
24.158	0.516660733	FRUGALITY	lure	n/a	n/a	n/a	1
24.674	0.366659551	HOLDUP	lure	n/a	n/a	n/a	1
25.041	1.016651814	KIWI	fruit	652	2	2	1
26.058	0.383323982	GAGGLE	lure	n/a	n/a	n/a	1
26.441	0.683323639	TEAHOUSE	lure	n/a	n/a	n/a	1
27.124	0.599993481	GRAVY	lure	n/a	n/a	n/a	1
27.724	0.349997341	VAGABOND	lure	n/a	n/a	n/a	1
28.074	0.383326548	AFTERSHAVE	lure	n/a	n/a	n/a	1
28.457	0.733324524	HAIRNET	lure	n/a	n/a	n/a	1
29.191	0.616656275	OBSERVER	lure	n/a	n/a	n/a	1
29.807	0.399996803	DISK	lure	n/a	n/a	n/a	1
30.207	0.499992269	TACTIC	lure	n/a	n/a	n/a	1
30.707	0.466659799	TREATISE	lure	n/a	n/a	n/a	1
31.174	0.666657326	CHEST	lure	n/a	n/a	n/a	1
31.841	0.449992922	SEABOARD	lure	n/a	n/a	n/a	1
32.291	0.483325255	CONFLUENCE	lure	n/a	n/a	n/a	1
32.774	0.549988467	MULTITUDE	lure	n/a	n/a	n/a	1
33.324	2.049973484	BUCKLE	long	n/a	n/a	n/a	1
35.374	0.649993815	SUCROSE	lure	n/a	n/a	n/a	1
36.024	0.566657403	BIRTHDAY	lure	n/a	n/a	n/a	1
36.591	0.599989949	INSTRUMENT	lure	n/a	n/a	n/a	1
37.191	0.549994867	OBJECTION	lure	n/a	n/a	n/a	1
37.741	0.566657601	CATWALK	lure	n/a	n/a	n/a	1
38.307	0.616660906	LABORER	lure	n/a	n/a	n/a	1
38.924	0.333319381	ABUNDANCE	lure	n/a	n/a	n/a	1
39.257	0.433330489	VANILLA	lure	n/a	n/a	n/a	1
39.691	0.366664741	BRIDGEWORK	lure	n/a	n/a	n/a	1
40.057	0.43338367	CORDUROY	lure	n/a	n/a	n/a	1
40.491	0.499994419	HOLDER	lure	n/a	n/a	n/a	1
40.991	0.383326666	BIPLANE	lure	n/a	n/a	n/a	1
41.374	0.618164222	VAULT	short	n/a	n/a	n/a	1
41.992	0.43176224	MOTORWAY	lure	n/a	n/a	n/a	1
42.424	0.435360421	SHRIMP	lure	n/a	n/a	n/a	1
42.859	0.6479576	CHORE	lure	n/a	n/a	n/a	1
43.507	0.333326805	ANTENNA	lure	n/a	n/a	n/a	1
43.841	0.749990905	JUROR	lure	n/a	n/a	n/a	1
44.591	0.483324094	OVERLORD	lure	n/a	n/a	n/a	1
45.074	0.433327602	EXPECTANCE	lure	n/a	n/a	n/a	1
45.507	0.399997008	NAVIGATOR	lure	n/a	n/a	n/a	1
45.907	0.499992092	CRAYFISH	lure	n/a	n/a	n/a	1
46.407	0.366663618	DOSAGE	lure	n/a	n/a	n/a	1
46.774	0.549991163	LEGIBILITY	lure	n/a	n/a	n/a	1
47.324	0.666657117	SPARKLER	lure	n/a	n/a	n/a	1
47.991	0.566658414	SHEET	lure	n/a	n/a	n/a	1
48.557	0.583322273	TIPOFF	lure	n/a	n/a	n/a	1
49.141	0.720589281	GUESSWORK	lure	n/a	n/a	n/a	1
49.861	0.612726207	DENT	short	n/a	n/a	n/a	1
50.474	0.399997763	GEOGRAPHER	lure	n/a	n/a	n/a	1
50.874	0.616650704	TRACT	lure	n/a	n/a	n/a	1
51.49	0.599995412	OVERPRINT	lure	n/a	n/a	n/a	1
52.09	0.483321615	PETUNIA	lure	n/a	n/a	n/a	1
52.574	0.4833312	TURNOVER	lure	n/a	n/a	n/a	1
53.057	0.549991286	MISSY	lure	n/a	n/a	n/a	1
53.607	0.516659597	SHORTCAKE	lure	n/a	n/a	n/a	1
54.124	0.433329988	PREVENTION	lure	n/a	n/a	n/a	1
54.557	0.666654897	CHISEL	lure	n/a	n/a	n/a	1
55.224	0.399992896	JUDICIARY	lure	n/a	n/a	n/a	1
55.624	0.766657443	BUTTERCUP	lure	n/a	n/a	n/a	1
56.39	0.733322239	RAILHEAD	lure	n/a	n/a	n/a	1
57.124	0.599994027	LITERACY	lure	n/a	n/a	n/a	1
57.724	0.333320237	VELVET	lure	n/a	n/a	n/a	1
58.057	0.616662551	CURTAIN	short	n/a	n/a	n/a	1
58.674	0.366661438	TRACTION	lure	n/a	n/a	n/a	1
59.04	0.649990822	WONDERLAND	lure	n/a	n/a	n/a	1
59.69	0.599990145	HORIZON	lure	n/a	n/a	n/a	1
60.29	0.403457645	THEOLOGY	lure	n/a	n/a	n/a	1
60.694	0.646528449	INVALID	lure	n/a	n/a	n/a	1
61.34	0.599992507	BRUSHWOOD	lure	n/a	n/a	n/a	1
61.94	0.399993901	HUBBY	lure	n/a	n/a	n/a	1
62.34	0.699988849	INCUMBENCY	lure	n/a	n/a	n/a	1
63.04	0.383328941	GALE	lure	n/a	n/a	n/a	1
63.424	0.366662127	RECITATION	lure	n/a	n/a	n/a	1
63.79	0.616659365	RELIGION	lure	n/a	n/a	n/a	1
64.407	0.699989167	GULF	lure	n/a	n/a	n/a	1
65.107	0.666657915	TENSION	lure	n/a	n/a	n/a	1
65.774	0.599989252	TRADITION	lure	n/a	n/a	n/a	1
66.374	0.616655878	TUNNEL	short	n/a	n/a	n/a	1
66.99	0.649990873	DECADE	lure	n/a	n/a	n/a	1
67.64	0.450052044	COWGIRL	lure	n/a	n/a	n/a	1
68.09	0.599933528	DEPOSITORY	lure	n/a	n/a	n/a	1
68.69	0.4000575	SUPEREGO	lure	n/a	n/a	n/a	1
69.09	0.599929565	CIRCUIT	lure	n/a	n/a	n/a	1
69.69	0.549992532	GASOLINE	lure	n/a	n/a	n/a	1
70.24	0.719181129	RUBBLE	lure	n/a	n/a	n/a	1
70.959	0.364138153	DISPARITY	lure	n/a	n/a	n/a	1
71.324	0.616656895	ACROBAT	lure	n/a	n/a	n/a	1
71.94	0.599985144	HOPSCOTCH	lure	n/a	n/a	n/a	1
72.54	0.483390769	SERGE	lure	n/a	n/a	n/a	1
73.024	0.549989669	BLUEBIRD	lure	n/a	n/a	n/a	1
73.574	0.433270775	POACHER	lure	n/a	n/a	n/a	1
74.007	0.383329816	MATCHMAKER	lure	n/a	n/a	n/a	1
74.39	2.016638044	LIGHT	long	n/a	n/a	n/a	1
76.407	0.566655158	STORYBOOK	lure	n/a	n/a	n/a	1
76.973	0.421173878	TRUTH	lure	n/a	n/a	n/a	1
77.395	0.362149823	REVENGE	lure	n/a	n/a	n/a	1
77.757	0.483381401	BAZOOKA	lure	n/a	n/a	n/a	1
78.24	0.34999751	EQUATION	lure	n/a	n/a	n/a	1
78.59	0.683266915	DISHWATER	lure	n/a	n/a	n/a	1
79.273	0.550047807	FAILURE	lure	n/a	n/a	n/a	1
79.823	0.366603345	SUFFRAGE	lure	n/a	n/a	n/a	1
80.19	0.386658343	FISHMONGER	lure	n/a	n/a	n/a	1
80.577	0.363572648	ELITISM	lure	n/a	n/a	n/a	1
80.94	0.416419231	STINGER	lure	n/a	n/a	n/a	1
81.357	0.433326825	STATEROOM	lure	n/a	n/a	n/a	1
81.79	0.566653568	VALET	lure	n/a	n/a	n/a	1
82.357	2.016645085	DIRT	long	n/a	n/a	n/a	1
84.373	0.483379307	HERESY	lure	n/a	n/a	n/a	1
84.857	0.449937311	PASSWORD	lure	n/a	n/a	n/a	1
85.307	0.36665844	TEENAGER	lure	n/a	n/a	n/a	1
85.673	0.483329303	HUMANKIND	lure	n/a	n/a	n/a	1
86.157	0.466661435	ADVERSITY	lure	n/a	n/a	n/a	1
86.623	0.566711308	HEATWAVE	lure	n/a	n/a	n/a	1
87.19	0.686523161	PLAYGROUP	lure	n/a	n/a	n/a	1
87.877	0.349564816	LEGALISM	lure	n/a	n/a	n/a	1
88.226	0.747167299	RACIALISM	lure	n/a	n/a	n/a	1
88.973	0.616717352	TREASURER	lure	n/a	n/a	n/a	1
89.59	0.483266272	SCIENTIST	lure	n/a	n/a	n/a	1
90.073	0.616656743	CUMULATION	lure	n/a	n/a	n/a	1
90.69	0.616652922	SCREEN	short	n/a	n/a	n/a	1
91.307	0.667442891	HASTE	lure	n/a	n/a	n/a	1
91.974	0.765875775	BARLEY	lure	n/a	n/a	n/a	1
92.74	0.600042495	CHECKPOINT	lure	n/a	n/a	n/a	1
93.34	0.583275059	PATIO	lure	n/a	n/a	n/a	1
93.923	0.483321618	FLAPPER	lure	n/a	n/a	n/a	1
94.407	0.550050442	HALTER	lure	n/a	n/a	n/a	1
94.957	0.516599918	BASEMENT	lure	n/a	n/a	n/a	1
95.473	0.54999621	REFINER	lure	n/a	n/a	n/a	1
96.023	0.783384258	PODIUM	lure	n/a	n/a	n/a	1
96.807	0.533263855	RECOUNT	lure	n/a	n/a	n/a	1
97.34	0.383327816	LIBERATOR	lure	n/a	n/a	n/a	1
97.723	0.683318589	JELLY	lure	n/a	n/a	n/a	1
98.406	0.733409342	TRIPOD	lure	n/a	n/a	n/a	1
99.14	2.018759486	TERRACE	long	n/a	n/a	n/a	1
101.159	0.56445634	ABSTENTION	lure	n/a	n/a	n/a	1
101.723	0.433326852	CORNFLAKE	lure	n/a	n/a	n/a	1
102.156	0.633325633	TALC	lure	n/a	n/a	n/a	1
102.79	0.383325911	SPELLER	lure	n/a	n/a	n/a	1
103.173	0.449993456	RESIDENCY	lure	n/a	n/a	n/a	1
103.623	0.383329026	YARD	lure	n/a	n/a	n/a	1
104.006	0.599989547	CAPTOR	lure	n/a	n/a	n/a	1
104.606	0.599987076	NIGHTFALL	lure	n/a	n/a	n/a	1
105.206	0.649994388	MOBILITY	lure	n/a	n/a	n/a	1
105.856	0.633325926	HARLOT	lure	n/a	n/a	n/a	1
106.49	0.516713557	TOOLMAKER	lure	n/a	n/a	n/a	1
107.006	0.483271869	FLOATER	lure	n/a	n/a	n/a	1
107.49	0.616652379	MATTER	short	n/a	n/a	n/a	1
108.106	0.533389063	FIN	lure	n/a	n/a	n/a	1
108.64	0.683264551	FENCER	lure	n/a	n/a	n/a	1
109.323	0.566659767	TRIVIALITY	lure	n/a	n/a	n/a	1
109.89	0.633320459	PROFUSION	lure	n/a	n/a	n/a	1
110.523	0.383326186	WELFARE	lure	n/a	n/a	n/a	1
110.906	0.449998748	ANIMOSITY	lure	n/a	n/a	n/a	1
111.356	0.549992792	DAFFODIL	lure	n/a	n/a	n/a	1
111.906	0.383327039	OAT	lure	n/a	n/a	n/a	1
112.29	0.500052828	LANDSLIDE	lure	n/a	n/a	n/a	1
112.79	0.753874556	HYENA	lure	n/a	n/a	n/a	1
113.544	0.329384304	BAPTISM	lure	n/a	n/a	n/a	1
113.873	0.783318549	SUNFISH	lure	n/a	n/a	n/a	1
114.656	0.733323928	SUBVERSION	lure	n/a	n/a	n/a	1
115.39	0.466659451	WEEKEND	lure	n/a	n/a	n/a	1
115.856	2.01664226	BUBBLE	long	n/a	n/a	n/a	1
117.873	0.433325055	EYESTRAIN	lure	n/a	n/a	n/a	1
118.306	0.583322478	SASH	lure	n/a	n/a	n/a	1
118.89	0.349996551	RETIREMENT	lure	n/a	n/a	n/a	1
119.24	0.399992583	MIXTURE	lure	n/a	n/a	n/a	1
119.639	0.399995302	FLAGSHIP	lure	n/a	n/a	n/a	1
120.039	0.51666202	DESPOTISM	lure	n/a	n/a	n/a	1
120.556	0.366658145	BOOKER	lure	n/a	n/a	n/a	1
120.923	0.533326018	PAGANISM	lure	n/a	n/a	n/a	1
121.456	0.383327538	CARAMEL	lure	n/a	n/a	n/a	1
121.839	0.599992362	BALLAD	lure	n/a	n/a	n/a	1
122.439	0.666653045	PINSTRIPE	lure	n/a	n/a	n/a	1
123.106	0.416664938	COMPETENCE	lure	n/a	n/a	n/a	1
123.523	0.466658997	GRANDPA	lure	n/a	n/a	n/a	1
123.989	2.016637416	BRIDGE	long	n/a	n/a	n/a	1
126.006	0.683324353	BROOM	lure	n/a	n/a	n/a	1
126.689	0.349994019	MATURATION	lure	n/a	n/a	n/a	1
127.039	0.616658433	REPEATER	lure	n/a	n/a	n/a	1
127.656	0.499989697	GUERRILLA	lure	n/a	n/a	n/a	1
128.156	0.633322244	CORRIDOR	lure	n/a	n/a	n/a	1
128.789	0.466665779	EGGNOG	lure	n/a	n/a	n/a	1
129.256	0.749983862	FORGERY	lure	n/a	n/a	n/a	1
130.006	0.533331305	MUG	lure	n/a	n/a	n/a	1
130.539	0.349993591	CRANNY	lure	n/a	n/a	n/a	1
130.889	0.666657684	LONGEVITY	lure	n/a	n/a	n/a	1
131.556	0.416659552	GOLDSMITH	lure	n/a	n/a	n/a	1
131.973	0.566660388	BENEFICENT	lure	n/a	n/a	n/a	1
132.539	0.650088462	SANDPAPER	short	n/a	n/a	n/a	1
133.189	0.599889477	SNAPBACK	lure	n/a	n/a	n/a	1
133.789	0.750057851	ELEGANCE	lure	n/a	n/a	n/a	1
134.539	0.383258605	MAILBOX	lure	n/a	n/a	n/a	1
134.923	0.516778723	ADORATION	lure	n/a	n/a	n/a	1
135.439	0.53326597	PARADISE	lure	n/a	n/a	n/a	1
135.973	0.501370099	JUBILEE	lure	n/a	n/a	n/a	1
136.474	0.33189485	TEACHER	lure	n/a	n/a	n/a	1
136.806	0.733322254	REVIEWER	lure	n/a	n/a	n/a	1
137.539	0.733323274	SALINITY	lure	n/a	n/a	n/a	1
138.273	0.599991049	BRUTALITY	lure	n/a	n/a	n/a	1
138.873	0.333328441	SETTLEMENT	lure	n/a	n/a	n/a	1
139.206	0.366661648	NIRVANA	lure	n/a	n/a	n/a	1
139.573	0.602383145	INSECURITY	lure	n/a	n/a	n/a	1
140.175	0.630934356	TEAROOM	lure	n/a	n/a	n/a	1
140.806	1.016646501	BAn/aA	fruit	n/a	n/a	2	0
141.823	0.749992369	ARMCHAIR	lure	326	2	n/a	0
142.572	0.316730705	ODE	lure	n/a	n/a	n/a	1
142.889	0.737794001	DEMANDER	lure	n/a	n/a	n/a	1
143.627	0.328785627	ARCHBISHOP	lure	n/a	n/a	n/a	1
143.956	0.749992789	FIREMEN	lure	n/a	n/a	n/a	1
144.706	0.649991665	MOWER	lure	n/a	n/a	n/a	1
145.356	0.749990003	SPEAKEASY	lure	n/a	n/a	n/a	1
146.106	0.483326954	EDUCATOR	lure	n/a	n/a	n/a	1
146.589	0.466747917	BRICKYARD	lure	n/a	n/a	n/a	1
147.056	0.449901017	PINKIE	lure	n/a	n/a	n/a	1
147.506	0.749992783	BATON	lure	n/a	n/a	n/a	1
148.256	0.64998989	DECEPTION	lure	n/a	n/a	n/a	1
148.906	0.500050209	MISUSE	lure	n/a	n/a	n/a	1
149.406	2.016582004	HAMMER	long	n/a	n/a	n/a	1
151.422	0.366724408	UPROAR	lure	n/a	n/a	n/a	1
151.789	0.383261257	DIFFUSION	lure	n/a	n/a	n/a	1
152.172	0.3499973	DISMISSAL	lure	n/a	n/a	n/a	1
152.522	0.516659199	COMMERCE	lure	n/a	n/a	n/a	1
153.039	0.633323748	FORE	lure	n/a	n/a	n/a	1
153.672	0.383326821	MEDLEY	lure	n/a	n/a	n/a	1
154.056	0.553756309	OVATION	lure	n/a	n/a	n/a	1
154.609	0.562896991	REGULATION	lure	n/a	n/a	n/a	1
155.172	0.716654866	NETTLE	lure	n/a	n/a	n/a	1
155.889	0.400053277	BUSH	lure	n/a	n/a	n/a	1
156.289	0.516679221	BOOKMOBILE	lure	n/a	n/a	n/a	1
156.806	0.733238946	STUD	lure	n/a	n/a	n/a	1
157.539	2.016646456	CONE	long	n/a	n/a	n/a	1
159.556	0.366717799	GODSEND	lure	n/a	n/a	n/a	1
159.922	0.749988454	INVALIDISM	lure	n/a	n/a	n/a	1
160.672	0.599931119	LIBERTY	lure	n/a	n/a	n/a	1
161.272	0.566658849	INHALATION	lure	n/a	n/a	n/a	1
161.839	0.466660005	RADIOLOGY	lure	n/a	n/a	n/a	1
162.306	0.716653528	WAYSIDE	lure	n/a	n/a	n/a	1
163.022	0.516662031	CLOCK	lure	n/a	n/a	n/a	1
163.539	0.766654554	REAPER	lure	n/a	n/a	n/a	1
164.306	0.483329222	HEADHUNTER	lure	n/a	n/a	n/a	1
164.789	0.616657304	GAVEL	lure	n/a	n/a	n/a	1
165.406	0.3833915	KIDNEY	lure	n/a	n/a	n/a	1
165.789	1.016587624	BLACKBERRY	fruit	742	2	2	1
166.805	0.333329195	SKULL	lure	n/a	n/a	n/a	1
167.139	0.516658157	SAILCLOTH	lure	n/a	n/a	n/a	1
167.655	0.449994651	NERVE	lure	n/a	n/a	n/a	1
168.105	0.733322956	WILDLIFE	lure	n/a	n/a	n/a	1
168.839	0.649989988	ABSOLUTION	lure	n/a	n/a	n/a	1
169.489	0.466660373	SETBACK	lure	n/a	n/a	n/a	1
169.955	0.449993949	HOOP	lure	n/a	n/a	n/a	1
170.405	0.749987933	FOLDER	lure	n/a	n/a	n/a	1
171.155	0.43332696	SHANK	lure	n/a	n/a	n/a	1
171.589	0.449990687	COMMUTER	lure	n/a	n/a	n/a	1
172.039	0.649993243	SIGMA	lure	n/a	n/a	n/a	1
172.689	0.499992636	LUNG	lure	n/a	n/a	n/a	1
173.189	0.568345874	DIOXIDE	lure	n/a	n/a	n/a	1
173.757	1.014968506	NECTARINE	fruit	894	2	2	1
174.772	0.366658044	BOUQUET	lure	n/a	n/a	n/a	1
175.139	0.366662132	FORTE	lure	n/a	n/a	n/a	1
175.505	0.699989521	DIESEL	lure	n/a	n/a	n/a	1
176.205	0.466659506	IVY	lure	n/a	n/a	n/a	1
176.672	0.633324607	PERSECUTOR	lure	n/a	n/a	n/a	1
177.305	0.483386618	BRILLIANCE	lure	n/a	n/a	n/a	1
177.789	0.533263474	SUNSPOT	lure	n/a	n/a	n/a	1
178.322	0.516663457	BOBTAIL	lure	n/a	n/a	n/a	1
178.839	0.583324085	HEARTBEAT	lure	n/a	n/a	n/a	1
179.422	0.716654425	TISSUE	lure	n/a	n/a	n/a	1
180.139	0.316663326	ACTIVATION	lure	n/a	n/a	n/a	1
180.455	0.499993044	BACKGROUND	lure	n/a	n/a	n/a	1
180.955	0.616657093	KILO	lure	n/a	n/a	n/a	1
181.572	0.499993686	BELLFLOWER	lure	n/a	n/a	n/a	1
182.072	0.619088021	SUDS	short	n/a	n/a	n/a	1
182.691	0.764224206	CUBIST	lure	n/a	n/a	n/a	1
183.455	0.449992348	OLIGARCHY	lure	n/a	n/a	n/a	1
183.905	0.749990655	TAXICAB	lure	n/a	n/a	n/a	1
184.655	0.650054065	CAUSEWAY	lure	n/a	n/a	n/a	1
185.305	0.449989536	POLYTHEISM	lure	n/a	n/a	n/a	1
185.755	0.654651808	ROADWAY	lure	n/a	n/a	n/a	1
186.41	0.495270921	SKILLET	lure	n/a	n/a	n/a	1
186.905	0.449995341	MEDIATOR	lure	n/a	n/a	n/a	1
187.355	0.633321258	RESISTOR	lure	n/a	n/a	n/a	1
187.989	0.549994567	JOSH	lure	n/a	n/a	n/a	1
188.539	0.749989018	STARLIGHT	lure	n/a	n/a	n/a	1
189.288	0.366661683	CHUNK	lure	n/a	n/a	n/a	1
189.655	0.716654616	INTERLUDE	lure	n/a	n/a	n/a	1
190.372	0.616655364	MATCH	short	n/a	n/a	n/a	1
190.988	0.466664461	REPTILE	lure	n/a	n/a	n/a	1
191.455	0.516653928	LYRICIST	lure	n/a	n/a	n/a	1
191.972	0.399998971	EVOLUTION	lure	n/a	n/a	n/a	1
192.372	0.699985255	CLAPPER	lure	n/a	n/a	n/a	1
193.072	0.419175507	LIBRARY	lure	n/a	n/a	n/a	1
193.491	0.714147114	PERIMETER	lure	n/a	n/a	n/a	1
194.205	0.599989693	TOENAIL	lure	n/a	n/a	n/a	1
194.805	0.333329957	MADWOMAN	lure	n/a	n/a	n/a	1
195.138	0.566656206	CROCK	lure	n/a	n/a	n/a	1
195.705	0.649993998	ABSORBENCY	lure	n/a	n/a	n/a	1
196.355	0.41665689	DEPENDENCY	lure	n/a	n/a	n/a	1
196.772	0.551133113	SPIRE	lure	n/a	n/a	n/a	1
197.323	0.400413094	DOLT	lure	n/a	n/a	n/a	1
197.723	0.431765238	ARISTOCRAT	lure	n/a	n/a	n/a	1
198.155	0.583328433	LIBERALITY	lure	n/a	n/a	n/a	1
198.738	0.616657996	PYRAMID	short	n/a	n/a	n/a	1
199.355	0.566655037	PERIODICAL	lure	n/a	n/a	n/a	1
199.922	0.366668618	MARQUEE	lure	n/a	n/a	n/a	1
200.288	0.60141234	LOADER	lure	n/a	n/a	n/a	1
200.89	0.681897017	ENTREATY	lure	n/a	n/a	n/a	1
201.572	0.333330584	HEIGHT	lure	n/a	n/a	n/a	1
201.905	0.433327061	STOCKMAN	lure	n/a	n/a	n/a	1
202.338	0.499991417	PROSPECTOR	lure	n/a	n/a	n/a	1
202.838	0.649990359	OUTLOOK	lure	n/a	n/a	n/a	1
203.488	0.416662116	SUBSCRIBER	lure	n/a	n/a	n/a	1
203.905	0.449992997	FEDERATION	lure	n/a	n/a	n/a	1
204.355	0.649989622	CHEMISE	lure	n/a	n/a	n/a	1
205.005	0.566660759	QUIRK	lure	n/a	n/a	n/a	1
205.572	0.333326744	REFILL	lure	n/a	n/a	n/a	1
205.905	0.63332543	PRIVILEGE	lure	n/a	n/a	n/a	1
206.538	0.500049918	TRESPASSER	lure	n/a	n/a	n/a	1
207.038	1.019481857	CHERRY	fruit	750	2	2	1
208.058	0.44747128	SHOPPER	lure	n/a	n/a	n/a	1
208.505	0.566293987	ADVERTISER	lure	n/a	n/a	n/a	1
209.072	0.766657484	PEACETIME	lure	n/a	n/a	n/a	1
209.838	0.466717659	ALTO	lure	n/a	n/a	n/a	1
210.305	0.483266147	EDITORSHIP	lure	n/a	n/a	n/a	1
210.788	0.583328471	SURVEY	lure	n/a	n/a	n/a	1
211.372	0.633321301	DEPOSITION	lure	n/a	n/a	n/a	1
212.005	0.366659726	ALUMNI	lure	n/a	n/a	n/a	1
212.371	0.433329532	PATRIARCHY	lure	n/a	n/a	n/a	1
212.805	0.383332437	HYPERBOLA	lure	n/a	n/a	n/a	1
213.188	0.799984676	DEJECTION	lure	n/a	n/a	n/a	1
213.988	0.499987537	WHISKER	lure	n/a	n/a	n/a	1
214.488	0.483331128	AMBIANCE	lure	n/a	n/a	n/a	1
214.971	2.016637841	ROPE	long	n/a	n/a	n/a	1
216.988	0.550037356	BUILDUP	lure	n/a	n/a	n/a	1
217.538	0.483277776	AEROSOL	lure	n/a	n/a	n/a	1
218.021	0.449995607	TOUCHDOWN	lure	n/a	n/a	n/a	1
218.471	0.616658555	RECURRENCE	lure	n/a	n/a	n/a	1
219.088	0.533385877	TRILOGY	lure	n/a	n/a	n/a	1
219.621	0.716590124	BOOKBINDER	lure	n/a	n/a	n/a	1
220.338	0.549995963	FORMATION	lure	n/a	n/a	n/a	1
220.888	0.433329978	SUNFLOWER	lure	n/a	n/a	n/a	1
221.321	0.466657295	AIDE	lure	n/a	n/a	n/a	1
221.788	0.59999254	SYMPHONY	lure	n/a	n/a	n/a	1
222.388	0.466659566	COMPULSION	lure	n/a	n/a	n/a	1
222.855	0.749988326	POLYMER	lure	n/a	n/a	n/a	1
223.605	0.333330725	DRUDGERY	lure	n/a	n/a	n/a	1
223.938	0.716656014	REDSKIN	lure	n/a	n/a	n/a	1
224.655	0.38332678	DEPUTY	lure	n/a	n/a	n/a	1
225.038	0.533321928	SLIPCOVER	lure	n/a	n/a	n/a	1
225.571	0.733327274	GREYBEARD	lure	n/a	n/a	n/a	1
226.305	0.616656844	MINER	lure	n/a	n/a	n/a	1
226.921	n/a	DEPARTURE	lure	n/a	n/a	n/a	1
238.021	0.533327281	BUCKWHEAT	lure	n/a	n/a	n/a	1
238.554	0.599990247	MAGNETISM	lure	n/a	n/a	n/a	1
239.154	0.533326893	FAMILY	lure	n/a	n/a	n/a	1
239.688	0.766654146	NIGHTCAP	lure	n/a	n/a	n/a	1
240.454	0.749987877	COMMUTE	lure	n/a	n/a	n/a	1
241.204	0.551445878	FLOOZY	lure	n/a	n/a	n/a	1
241.756	2.018826699	CONE	long	n/a	n/a	n/a	1
243.775	0.315847461	JACKET	lure	n/a	n/a	n/a	1
244.091	0.347168912	COPIER	lure	n/a	n/a	n/a	1
244.438	0.550053634	SLOWPOKE	lure	n/a	n/a	n/a	1
244.988	0.483264373	PORTRAYAL	lure	n/a	n/a	n/a	1
245.471	0.39999385	CONDOLENCE	lure	n/a	n/a	n/a	1
245.871	0.350058223	COUPLER	lure	n/a	n/a	n/a	1
246.221	0.366657154	HOUSECOAT	lure	n/a	n/a	n/a	1
246.588	0.716599586	LANE	lure	n/a	n/a	n/a	1
247.304	0.583323603	YACHTSMAN	lure	n/a	n/a	n/a	1
247.888	0.750033046	VILLAIN	lure	n/a	n/a	n/a	1
248.638	0.716612532	NIP	lure	n/a	n/a	n/a	1
249.354	0.649990156	SPUD	lure	n/a	n/a	n/a	1
250.004	0.649990384	DENT	short	n/a	n/a	n/a	1
250.654	0.533389432	TREMOR	lure	n/a	n/a	n/a	1
251.188	0.33638421	RESIDENT	lure	n/a	n/a	n/a	1
251.524	0.696871804	CORONATION	lure	n/a	n/a	n/a	1
252.221	0.599992209	NONDRIVER	lure	n/a	n/a	n/a	1
252.821	0.349993185	SEQUENCE	lure	n/a	n/a	n/a	1
253.171	0.36666109	PROTEST	lure	n/a	n/a	n/a	1
253.538	0.699991829	CROISSANT	lure	n/a	n/a	n/a	1
254.238	0.433385752	RETELLING	lure	n/a	n/a	n/a	1
254.671	0.486065598	PLATOON	lure	n/a	n/a	n/a	1
255.157	0.447258235	KIND	lure	n/a	n/a	n/a	1
255.604	0.64999192	PIANO	lure	n/a	n/a	n/a	1
256.254	0.716596004	EJECTOR	lure	n/a	n/a	n/a	1
256.971	0.766652928	AROMA	lure	n/a	n/a	n/a	1
257.738	0.433321322	SPOTTER	lure	n/a	n/a	n/a	1
258.171	0.616665614	MATTER	short	n/a	n/a	n/a	1
258.787	0.733316968	CASEWORK	lure	n/a	n/a	n/a	1
259.521	0.483330315	COLE	lure	n/a	n/a	n/a	1
260.004	0.533324855	PROTRACTOR	lure	n/a	n/a	n/a	1
260.537	0.399990535	BAGFUL	lure	n/a	n/a	n/a	1
260.937	0.499994385	GILL	lure	n/a	n/a	n/a	1
261.437	0.699986936	EQUIPMENT	lure	n/a	n/a	n/a	1
262.137	0.416665497	REGIME	lure	n/a	n/a	n/a	1
262.554	0.649986226	OVERLAY	lure	n/a	n/a	n/a	1
263.204	0.70005018	INJUSTICE	lure	n/a	n/a	n/a	1
263.904	0.383272352	AMP	lure	n/a	n/a	n/a	1
264.287	0.366660463	SURFBOARD	lure	n/a	n/a	n/a	1
264.654	0.516707104	CROCODILE	lure	n/a	n/a	n/a	1
265.171	0.599944257	WHISKY	lure	n/a	n/a	n/a	1
265.771	0.383386886	CLASSICISM	lure	n/a	n/a	n/a	1
266.154	0.483331272	DEFIANCE	lure	n/a	n/a	n/a	1
266.637	0.616654841	PYRAMID	short	n/a	n/a	n/a	1
267.254	0.699927237	CROQUET	lure	n/a	n/a	n/a	1
267.954	0.633325043	JIGSAW	lure	n/a	n/a	n/a	1
268.587	0.733317693	BUNGALOW	lure	n/a	n/a	n/a	1
269.321	0.416666988	JEWELER	lure	n/a	n/a	n/a	1
269.737	0.349995621	AGGRESSION	lure	n/a	n/a	n/a	1
270.087	0.366659037	BUCKSKIN	lure	n/a	n/a	n/a	1
270.454	0.649992091	BALCONY	lure	n/a	n/a	n/a	1
271.104	0.350054984	FULLBACK	lure	n/a	n/a	n/a	1
271.454	0.716644401	VALOR	lure	n/a	n/a	n/a	1
272.171	0.566609979	RHAPSODY	lure	n/a	n/a	n/a	1
272.737	0.316663206	AUTOGRAPH	lure	n/a	n/a	n/a	1
273.054	0.383325923	OPULENCE	lure	n/a	n/a	n/a	1
273.437	0.383328049	FRAGILITY	lure	n/a	n/a	n/a	1
273.821	0.333328364	KEEPSAKE	lure	n/a	n/a	n/a	1
274.154	0.333327456	HOBBYHORSE	lure	n/a	n/a	n/a	1
274.487	2.016637314	BUCKLE	long	n/a	n/a	n/a	1
276.504	0.716658443	INCISION	lure	n/a	n/a	n/a	1
277.221	0.7499927	HIGHSCHOOL	lure	n/a	n/a	n/a	1
277.971	0.466655413	SHRINKAGE	lure	n/a	n/a	n/a	1
278.437	0.566658977	SANCTUARY	lure	n/a	n/a	n/a	1
279.004	0.383329145	SPEAKER	lure	n/a	n/a	n/a	1
279.387	0.449991471	ROSEWATER	lure	n/a	n/a	n/a	1
279.837	0.399998319	BARRACUDA	lure	n/a	n/a	n/a	1
280.237	0.599988397	AFTERLIFE	lure	n/a	n/a	n/a	1
280.837	0.649993234	PERMISSION	lure	n/a	n/a	n/a	1
281.487	0.749988351	NOVEL	lure	n/a	n/a	n/a	1
282.237	0.46765485	COLLUSION	lure	n/a	n/a	n/a	1
282.705	0.617566011	MATCH	short	n/a	n/a	n/a	1
283.322	0.351411198	TELETYPE	lure	n/a	n/a	n/a	1
283.674	0.396672953	MANHOOD	lure	n/a	n/a	n/a	1
284.07	0.599990384	WOMANIZER	lure	n/a	n/a	n/a	1
284.67	0.549992319	ARROGANCE	lure	n/a	n/a	n/a	1
285.22	0.449993792	PRINTOUT	lure	n/a	n/a	n/a	1
285.67	0.616658469	PUBLISHER	lure	n/a	n/a	n/a	1
286.287	0.73332232	RAGTIME	lure	n/a	n/a	n/a	1
287.02	0.383324703	ANIMALISM	lure	n/a	n/a	n/a	1
287.404	0.316664509	LAMPSHADE	lure	n/a	n/a	n/a	1
287.72	0.699989215	TRIBESMAN	lure	n/a	n/a	n/a	1
288.42	0.549993118	CREATURE	lure	n/a	n/a	n/a	1
288.97	0.466656926	VICTOR	lure	n/a	n/a	n/a	1
289.437	0.416664086	ANARCHIST	lure	n/a	n/a	n/a	1
289.854	0.583324686	REEF	lure	n/a	n/a	n/a	1
290.437	0.566658331	COPYRIGHT	lure	n/a	n/a	n/a	1
291.004	2.017478241	ROPE	long	n/a	n/a	n/a	1
293.021	0.715818579	COMMUNION	lure	n/a	n/a	n/a	1
293.737	0.600054551	INDECISION	lure	n/a	n/a	n/a	1
294.337	0.466594753	THRIFT	lure	n/a	n/a	n/a	1
294.804	0.549992126	APPLIANCE	lure	n/a	n/a	n/a	1
295.354	0.616657139	VODKA	lure	n/a	n/a	n/a	1
295.97	0.33332919	ATTENTION	lure	n/a	n/a	n/a	1
296.304	0.433327191	GUIDANCE	lure	n/a	n/a	n/a	1
296.737	0.583324541	ENLISTMENT	lure	n/a	n/a	n/a	1
297.32	0.633324091	UNIFORMITY	lure	n/a	n/a	n/a	1
297.954	0.483326317	EARRING	lure	n/a	n/a	n/a	1
298.437	0.650031163	FOOTPRINT	lure	n/a	n/a	n/a	1
299.087	0.521461132	PINTO	lure	n/a	n/a	n/a	1
299.608	0.61356262	SUDS	short	n/a	n/a	n/a	1
300.222	0.698243673	EUPHEMISM	lure	n/a	n/a	n/a	1
300.92	0.516654211	PASTRY	lure	n/a	n/a	n/a	1
301.437	0.633329938	BEQUEST	lure	n/a	n/a	n/a	1
302.07	0.60005314	POLLUTANT	lure	n/a	n/a	n/a	1
302.67	0.749925053	MAXIM	lure	n/a	n/a	n/a	1
303.42	0.71665945	CHOCOLATE	lure	n/a	n/a	n/a	1
304.137	0.483324179	TELEVISION	lure	n/a	n/a	n/a	1
304.62	0.566655657	GRATITUDE	lure	n/a	n/a	n/a	1
305.187	0.633387524	ARBITRATOR	lure	n/a	n/a	n/a	1
305.82	0.449934256	TRICOLOR	lure	n/a	n/a	n/a	1
306.27	0.735623791	JUG	lure	n/a	n/a	n/a	1
307.006	0.797687139	UNDERWORLD	lure	n/a	n/a	n/a	1
307.803	0.416660655	LETTUCE	lure	n/a	n/a	n/a	1
308.22	2.016701182	LIGHT	long	n/a	n/a	n/a	1
310.237	0.316598996	WINDSTORM	lure	n/a	n/a	n/a	1
310.553	0.69998942	ASSERTION	lure	n/a	n/a	n/a	1
311.253	0.416661975	SILL	lure	n/a	n/a	n/a	1
311.67	0.633322222	RATION	lure	n/a	n/a	n/a	1
312.303	0.633324196	ANTLER	lure	n/a	n/a	n/a	1
312.937	0.333328123	STIPEND	lure	n/a	n/a	n/a	1
313.27	0.449993213	CARRIAGE	lure	n/a	n/a	n/a	1
313.72	0.666720448	HERMITAGE	lure	n/a	n/a	n/a	1
314.387	0.599931287	KIN	lure	n/a	n/a	n/a	1
314.987	0.33332768	ZOOLOGIST	lure	n/a	n/a	n/a	1
315.32	0.750033797	JOURNALISM	lure	n/a	n/a	n/a	1
316.07	0.600077636	BREAKUP	lure	n/a	n/a	n/a	1
316.67	1.016605039	APPLE	fruit	605	2	2	1
317.687	0.55119962	SMOKEHOUSE	lure	n/a	n/a	n/a	1
318.238	0.582033944	VITALISM	lure	n/a	n/a	n/a	1
318.82	0.450037913	RESEARCHER	lure	n/a	n/a	n/a	1
319.27	0.366618692	SUMMERTIME	lure	n/a	n/a	n/a	1
319.637	0.383324871	PACIFIER	lure	n/a	n/a	n/a	1
320.02	0.433388279	FAD	lure	n/a	n/a	n/a	1
320.453	0.533326481	FLATFOOT	lure	n/a	n/a	n/a	1
320.987	0.699929275	AUTUMN	lure	n/a	n/a	n/a	1
321.687	0.516657839	VISITOR	lure	n/a	n/a	n/a	1
322.203	0.636931898	TRACKER	lure	n/a	n/a	n/a	1
322.84	0.713049707	SCHOOLBOY	lure	n/a	n/a	n/a	1
323.553	0.649991201	STARFISH	lure	n/a	n/a	n/a	1
324.203	0.383323505	WORKDAY	lure	n/a	n/a	n/a	1
324.587	0.566661306	CROSSBAR	lure	n/a	n/a	n/a	1
325.153	2.054300708	BUBBLE	long	n/a	n/a	n/a	1
327.208	0.595662971	THYME	lure	n/a	n/a	n/a	1
327.803	0.53332771	HAIR	lure	n/a	n/a	n/a	1
328.336	0.350101012	NUMERAL	lure	n/a	n/a	n/a	1
328.687	0.649956835	RELOCATION	lure	n/a	n/a	n/a	1
329.337	0.64991673	PIGMENT	lure	n/a	n/a	n/a	1
329.986	0.699991229	STEELMAKER	lure	n/a	n/a	n/a	1
330.686	0.516657883	HELM	lure	n/a	n/a	n/a	1
331.203	0.400048949	INSULATOR	lure	n/a	n/a	n/a	1
331.603	0.649934288	EMPATHY	lure	n/a	n/a	n/a	1
332.253	0.633369352	SUBSTANCE	lure	n/a	n/a	n/a	1
332.886	0.566615624	THING	lure	n/a	n/a	n/a	1
333.453	0.617251631	SCREEN	short	n/a	n/a	n/a	1
334.07	0.399397952	OBSCENITY	lure	n/a	n/a	n/a	1
334.47	0.616658565	HEADBOARD	lure	n/a	n/a	n/a	1
335.086	0.549992472	EVERYBODY	lure	n/a	n/a	n/a	1
335.636	0.433326328	STAGECOACH	lure	n/a	n/a	n/a	1
336.07	0.349995288	HANDYMEN	lure	n/a	n/a	n/a	1
336.42	0.683320854	SPATIALITY	lure	n/a	n/a	n/a	1
337.103	0.699989803	EMPIRE	lure	n/a	n/a	n/a	1
337.803	0.599992469	MARATHON	lure	n/a	n/a	n/a	1
338.403	0.366663184	ADMIRALTY	lure	n/a	n/a	n/a	1
338.77	0.583325198	PROVINCE	lure	n/a	n/a	n/a	1
339.353	0.383384615	EQUATOR	lure	n/a	n/a	n/a	1
339.736	0.466603709	SPLASHDOWN	lure	n/a	n/a	n/a	1
340.203	0.466660531	FOREARM	lure	n/a	n/a	n/a	1
340.67	0.616656316	MOMMA	lure	n/a	n/a	n/a	1
341.286	0.366656216	INHUMANITY	lure	n/a	n/a	n/a	1
341.653	1.016656808	PINEAPPLE	fruit	646	2	2	1
342.67	0.549995299	PROPHECY	lure	n/a	n/a	n/a	1
343.22	0.400038507	NUTHOUSE	lure	n/a	n/a	n/a	1
343.62	0.399947657	STOVEPIPE	lure	n/a	n/a	n/a	1
344.02	0.51665439	LIEUTEn/aT	lure	n/a	n/a	n/a	1
344.536	0.46666439	SUNBEAM	lure	n/a	n/a	n/a	1
345.003	0.716763118	MALLARD	lure	n/a	n/a	n/a	1
345.72	0.733214694	LEADERSHIP	lure	n/a	n/a	n/a	1
346.453	0.716658528	ICEBOAT	lure	n/a	n/a	n/a	1
347.17	0.583325067	DOWNTURN	lure	n/a	n/a	n/a	1
347.753	0.516659524	LATCH	lure	n/a	n/a	n/a	1
348.27	0.48332416	POSTSCRIPT	lure	n/a	n/a	n/a	1
348.753	0.583382879	ITINERARY	lure	n/a	n/a	n/a	1
349.336	0.533334855	SKYWAY	lure	n/a	n/a	n/a	1
349.87	1.01658504	BLUEBERRY	fruit	608	2	2	1
350.886	0.699990272	BUZZARD	lure	n/a	n/a	n/a	1
351.586	0.516719665	ASSESSMENT	lure	n/a	n/a	n/a	1
352.103	0.654488042	WITCHCRAFT	lure	n/a	n/a	n/a	1
352.757	0.445431585	INDOLENCE	lure	n/a	n/a	n/a	1
353.203	0.333332078	DISASTER	lure	n/a	n/a	n/a	1
353.536	0.38332968	CASTOR	lure	n/a	n/a	n/a	1
353.919	0.750051996	COGNITION	lure	n/a	n/a	n/a	1
354.67	0.699924538	DOVE	lure	n/a	n/a	n/a	1
355.369	0.433374601	CLIENTELE	lure	n/a	n/a	n/a	1
355.803	0.549952003	DYNAMISM	lure	n/a	n/a	n/a	1
356.353	0.600028548	BODYGUARD	lure	n/a	n/a	n/a	1
356.953	0.599947879	ETHER	lure	n/a	n/a	n/a	1
357.553	0.599989886	BEAKER	lure	n/a	n/a	n/a	1
358.153	1.016650511	PLUM	fruit	n/a	n/a	2	0
359.169	0.666706644	FORUM	lure	474	2	n/a	0
359.836	0.616680913	BOBCAT	lure	n/a	n/a	n/a	1
360.453	0.733255214	EQUINOX	lure	n/a	n/a	n/a	1
361.186	0.599988924	MOTTO	lure	n/a	n/a	n/a	1
361.786	0.600053327	EMPLOYMENT	lure	n/a	n/a	n/a	1
362.386	0.583266463	WHEELCHAIR	lure	n/a	n/a	n/a	1
362.969	0.433341915	VELVETEEN	lure	n/a	n/a	n/a	1
363.403	0.749971394	PERMEATION	lure	n/a	n/a	n/a	1
364.153	0.399995781	DIVERSION	lure	n/a	n/a	n/a	1
364.553	0.483321395	CEREBRUM	lure	n/a	n/a	n/a	1
365.036	0.58333127	PINT	lure	n/a	n/a	n/a	1
365.619	0.353986865	MORALE	lure	n/a	n/a	n/a	1
365.973	0.612664318	CURTAIN	short	n/a	n/a	n/a	1
366.586	0.533323334	ERUPTION	lure	n/a	n/a	n/a	1
367.119	0.449997068	STUPIDITY	lure	n/a	n/a	n/a	1
367.569	0.633319122	ARMORY	lure	n/a	n/a	n/a	1
368.203	0.549992117	STORK	lure	n/a	n/a	n/a	1
368.753	0.699991738	INCUBATION	lure	n/a	n/a	n/a	1
369.453	0.46666127	SUSPECT	lure	n/a	n/a	n/a	1
369.919	0.399991206	INNOCENCE	lure	n/a	n/a	n/a	1
370.319	0.699995133	CONVENTION	lure	n/a	n/a	n/a	1
371.019	0.566657077	AIRPLANE	lure	n/a	n/a	n/a	1
371.586	0.583323804	HYMN	lure	n/a	n/a	n/a	1
372.169	0.383326916	ALTERATION	lure	n/a	n/a	n/a	1
372.553	0.599995298	RAILROADER	lure	n/a	n/a	n/a	1
373.153	0.499994294	ENGAGEMENT	lure	n/a	n/a	n/a	1
373.653	0.699985112	VISION	lure	n/a	n/a	n/a	1
374.352	2.01663609	BRIDGE	long	n/a	n/a	n/a	1
376.369	0.649990187	DITTY	lure	n/a	n/a	n/a	1
377.019	0.433329492	THIEVERY	lure	n/a	n/a	n/a	1
377.452	0.699991135	BYSTANDER	lure	n/a	n/a	n/a	1
378.152	0.76665709	WALNUT	lure	n/a	n/a	n/a	1
378.919	0.616651107	WHEAT	lure	n/a	n/a	n/a	1
379.536	0.69999241	PUSHOVER	lure	n/a	n/a	n/a	1
380.236	0.383331623	REACTION	lure	n/a	n/a	n/a	1
380.619	0.566652007	AMPLIFIER	lure	n/a	n/a	n/a	1
381.186	0.383332656	SKEPTICISM	lure	n/a	n/a	n/a	1
381.569	0.616657793	COBBLER	lure	n/a	n/a	n/a	1
382.186	0.34999609	VIDEOTAPE	lure	n/a	n/a	n/a	1
382.536	0.616655763	TUNNEL	short	n/a	n/a	n/a	1
383.152	0.716763218	PEASANTRY	lure	n/a	n/a	n/a	1
383.869	0.749884698	SURVEYOR	lure	n/a	n/a	n/a	1
384.619	0.349995932	FINISHER	lure	n/a	n/a	n/a	1
384.969	0.666716584	INTRUSION	lure	n/a	n/a	n/a	1
385.636	0.486321812	SEDITION	lure	n/a	n/a	n/a	1
386.122	0.597567094	STIRRUP	lure	n/a	n/a	n/a	1
386.72	0.382725244	BLOWOUT	lure	n/a	n/a	n/a	1
387.102	0.399966582	CHILD	lure	n/a	n/a	n/a	1
387.502	0.450039757	TAILPIECE	lure	n/a	n/a	n/a	1
387.952	0.416610625	WAGTAIL	lure	n/a	n/a	n/a	1
388.369	0.433379742	MILE	lure	n/a	n/a	n/a	1
388.802	0.400000555	EARPIECE	lure	n/a	n/a	n/a	1
389.202	0.466601212	FANLIGHT	lure	n/a	n/a	n/a	1
389.669	0.400049209	WILDFOWL	lure	n/a	n/a	n/a	1
390.069	0.449939196	IMPORTANCE	lure	n/a	n/a	n/a	1
390.519	2.016632952	TERRACE	long	n/a	n/a	n/a	1
392.536	0.416663331	CONTORTION	lure	n/a	n/a	n/a	1
392.952	0.470960283	TASKMASTER	lure	n/a	n/a	n/a	1
393.423	0.695693989	TWEED	lure	n/a	n/a	n/a	1
394.119	0.483322049	CLAUSE	lure	n/a	n/a	n/a	1
394.602	0.483328416	EXTRACT	lure	n/a	n/a	n/a	1
395.086	0.366663084	DOWNFALL	lure	n/a	n/a	n/a	1
395.452	0.716650703	AVIATION	lure	n/a	n/a	n/a	1
396.169	0.783433433	QUILT	lure	n/a	n/a	n/a	1
396.952	0.48321529	MATRIX	lure	n/a	n/a	n/a	1
397.435	0.683323348	FIREMAN	lure	n/a	n/a	n/a	1
398.119	0.583369388	BORDERLAND	lure	n/a	n/a	n/a	1
398.702	2.016597034	DIRT	long	n/a	n/a	n/a	1
400.719	0.649996159	CARTON	lure	n/a	n/a	n/a	1
401.369	0.383318656	HANGUP	lure	n/a	n/a	n/a	1
401.752	0.683328282	TUITION	lure	n/a	n/a	n/a	1
402.435	0.449994492	ARTIST	lure	n/a	n/a	n/a	1
402.885	0.701574292	PSEUDONYM	lure	n/a	n/a	n/a	1
403.587	0.63173713	UNICORN	lure	n/a	n/a	n/a	1
404.219	0.349999013	REMINDER	lure	n/a	n/a	n/a	1
404.569	0.616650697	EXCUSE	lure	n/a	n/a	n/a	1
405.185	0.599992225	KINGPIN	lure	n/a	n/a	n/a	1
405.785	0.700030395	SMOKESTACK	lure	n/a	n/a	n/a	1
406.485	0.433292023	LLAMA	lure	n/a	n/a	n/a	1
406.919	2.016634007	TRUCK	long	n/a	n/a	n/a	1
408.935	0.733323645	FOREST	lure	n/a	n/a	n/a	1
409.669	0.549991151	ALIGNMENT	lure	n/a	n/a	n/a	1
410.219	0.483330936	BICYCLE	lure	n/a	n/a	n/a	1
410.702	0.533322138	CONSTANCY	lure	n/a	n/a	n/a	1
411.235	0.403962554	TELEPATHY	lure	n/a	n/a	n/a	1
411.639	0.679353466	HUNCHBACK	lure	n/a	n/a	n/a	1
412.319	0.63332788	UTOPIA	lure	n/a	n/a	n/a	1
412.952	0.549993097	MONEYMAKER	lure	n/a	n/a	n/a	1
413.502	0.566654617	SIDEBOARD	lure	n/a	n/a	n/a	1
414.069	0.649994502	SHOTGUN	lure	n/a	n/a	n/a	1
414.719	0.33338405	RAPIDITY	lure	n/a	n/a	n/a	1
415.052	0.616604626	VAULT	short	n/a	n/a	n/a	1
415.669	0.335608475	WARDROBE	lure	n/a	n/a	n/a	1
416.004	0.464373575	ASPECT	lure	n/a	n/a	n/a	1
416.469	0.716662984	CRUTCH	lure	n/a	n/a	n/a	1
417.185	0.449988586	GROCERY	lure	n/a	n/a	n/a	1
417.635	0.366659861	KICKBACK	lure	n/a	n/a	n/a	1
418.002	0.449997331	KILOWATT	lure	n/a	n/a	n/a	1
418.452	0.366663586	MATCHBOX	lure	n/a	n/a	n/a	1
418.819	0.549987202	BARBARISM	lure	n/a	n/a	n/a	1
419.369	0.483323684	MONASTERY	lure	n/a	n/a	n/a	1
419.852	0.45081194	CONTINUUM	lure	n/a	n/a	n/a	1
420.303	0.433565099	RAVIOLI	lure	n/a	n/a	n/a	1
420.736	0.56560652	SPECK	lure	n/a	n/a	n/a	1
421.302	0.633324309	FORKLIFT	lure	n/a	n/a	n/a	1
421.935	0.766658644	REDWOOD	lure	n/a	n/a	n/a	1
422.702	0.633317496	VOCALIST	lure	n/a	n/a	n/a	1
423.335	2.016641466	HAMMER	long	n/a	n/a	n/a	1
425.352	0.716652026	ENCAMPMENT	lure	n/a	n/a	n/a	1
426.068	0.699995442	LATENCY	lure	n/a	n/a	n/a	1
426.768	0.449989167	PATHOLOGY	lure	n/a	n/a	n/a	1
427.218	0.633363775	SUBTITLE	lure	n/a	n/a	n/a	1
427.852	0.54995347	INSOLE	lure	n/a	n/a	n/a	1
428.402	0.750055168	MANPOWER	lure	n/a	n/a	n/a	1
429.152	0.583263082	SPOONFUL	lure	n/a	n/a	n/a	1
429.735	0.533321971	CRATER	lure	n/a	n/a	n/a	1
430.268	0.333356368	HAVOC	lure	n/a	n/a	n/a	1
430.602	0.399965123	HOSTAGE	lure	n/a	n/a	n/a	1
431.002	0.433331229	VERTEBRAE	lure	n/a	n/a	n/a	1
431.435	0.616655076	SANDPAPER	short	n/a	n/a	n/a	1
432.052	0.666661393	REMAKE	lure	n/a	n/a	n/a	1
432.718	0.399991896	BALLERINA	lure	n/a	n/a	n/a	1
433.118	0.383324765	WHIM	lure	n/a	n/a	n/a	1
433.502	0.766657916	JITTERBUG	lure	n/a	n/a	n/a	1
434.268	0.716696672	ATHEISM	lure	n/a	n/a	n/a	1
434.985	0.466657241	EXPECTANCY	lure	n/a	n/a	n/a	1
435.452	0.433288609	WARRIOR	lure	n/a	n/a	n/a	1
435.885	0.633324185	KNOB	lure	n/a	n/a	n/a	1
436.518	0.766654638	ART	lure	n/a	n/a	n/a	1
437.285	0.466664679	JOURNALIST	lure	n/a	n/a	n/a	1
437.752	0.51665289	JAGUAR	lure	n/a	n/a	n/a	1
438.268	0.433332868	EASEMENT	lure	n/a	n/a	n/a	1
438.702	0.721055295	SANDBAR	lure	n/a	n/a	n/a	1
439.423	0.612260221	FORESTRY	lure	n/a	n/a	n/a	1
440.035	1.016649368	GOOSEBERRY	fruit	680	2	2	1
441.052	0.666660331	PENICILLIN	lure	n/a	n/a	n/a	1
441.718	0.433321981	BASSINET	lure	n/a	n/a	n/a	1
442.152	0.583331096	TURNTABLE	lure	n/a	n/a	n/a	1
442.735	0.535686319	BEEFCAKE	lure	n/a	n/a	n/a	1
443.271	0.564294536	BREAKOUT	lure	n/a	n/a	n/a	1
443.835	0.549986842	ABBOT	lure	n/a	n/a	n/a	1
444.385	0.69999222	AGGRESSOR	lure	n/a	n/a	n/a	1
445.085	0.549989601	NECKLACE	lure	n/a	n/a	n/a	1
445.635	0.51666255	MISFORTUNE	lure	n/a	n/a	n/a	1
446.151	0.516657453	GOODWILL	lure	n/a	n/a	n/a	1
446.668	0.683327452	ESCAPEE	lure	n/a	n/a	n/a	1
447.351	0.333379542	DINOSAUR	lure	n/a	n/a	n/a	1
447.685	1.016597912	BLUEBERRY	fruit	625	2	2	1
448.701	0.349992939	UPSTART	lure	n/a	n/a	n/a	1
449.051	0.36666738	FOOTHILL	lure	n/a	n/a	n/a	1
449.418	0.399990431	PANE	lure	n/a	n/a	n/a	1
449.818	0.683325931	REALITY	lure	n/a	n/a	n/a	1
450.501	0.383323225	DUTY	lure	n/a	n/a	n/a	1
450.885	0.366664324	BACKLOG	lure	n/a	n/a	n/a	1
451.251	0.333331201	TWISTER	lure	n/a	n/a	n/a	1
451.585	0.550017353	ACTIVISM	lure	n/a	n/a	n/a	1
452.135	0.466634897	RENOWN	lure	n/a	n/a	n/a	1
452.601	0.449994789	VANTAGE	lure	n/a	n/a	n/a	1
453.051	0.416653766	REVENUE	lure	n/a	n/a	n/a	1
453.468	0.633326679	INITIATION	lure	n/a	n/a	n/a	1
454.101	0.683323654	BIZ	lure	n/a	n/a	n/a	1
454.785	0.516664244	JOGGER	lure	n/a	n/a	n/a	1
455.301	0.583324681	PURITY	lure	n/a	n/a	n/a	1
455.885	0.700024192	STREAMER	lure	n/a	n/a	n/a	1
456.585	0.699955643	MANIAC	lure	n/a	n/a	n/a	1
457.285	0.633357376	SCHISM	lure	n/a	n/a	n/a	1
457.918	0.649957237	PHILOSOPHY	lure	n/a	n/a	n/a	1
458.568	0.637274707	PESTICIDE	lure	n/a	n/a	n/a	1
459.205	0.696040471	SOAPBOX	lure	n/a	n/a	n/a	1
459.901	0.46665825	BOOKSHELF	lure	n/a	n/a	n/a	1
460.368	0.499992229	OUTSET	lure	n/a	n/a	n/a	1
460.868	0.51665905	TROTTER	lure	n/a	n/a	n/a	1
461.385	0.649990832	HOUSEWORK	lure	n/a	n/a	n/a	1
462.035	0.61670673	PEn/aCE	lure	n/a	n/a	n/a	1
462.651	0.683275162	TURBULENCE	lure	n/a	n/a	n/a	1
463.335	0.683320127	DILATATION	lure	n/a	n/a	n/a	1
464.018	0.5333297	MARMALADE	lure	n/a	n/a	n/a	1
464.551	n/a	DYNAMITE	lure	n/a	n/a	n/a	1