onset	duration	stim	cond	RT	resp	cresp	acc
4.039	0.3499929	SETTLER	lure	n/a	n/a	n/a	1
4.389	0.366665132	FAME	lure	n/a	n/a	n/a	1
4.756	0.616653854	REBELLION	lure	n/a	n/a	n/a	1
5.373	0.433331618	HAMBURGER	lure	n/a	n/a	n/a	1
5.806	0.483372954	NAVIGATION	lure	n/a	n/a	n/a	1
6.289	0.416614261	SONNET	lure	n/a	n/a	n/a	1
6.706	0.399992357	FOUNDLING	lure	n/a	n/a	n/a	1
7.106	0.699993391	DAMSEL	lure	n/a	n/a	n/a	1
7.806	0.399987386	SOFA	lure	n/a	n/a	n/a	1
8.206	0.649995966	CURTAIN	short	n/a	n/a	n/a	1
8.856	0.499993176	VIOLET	lure	n/a	n/a	n/a	1
9.356	0.466699362	NUISANCE	lure	n/a	n/a	n/a	1
9.823	0.583324769	TOUCHSTONE	lure	n/a	n/a	n/a	1
10.406	0.566614107	DEFERENCE	lure	n/a	n/a	n/a	1
10.972	0.74999522	PRIORITY	lure	n/a	n/a	n/a	1
11.722	0.749989635	NOBODY	lure	n/a	n/a	n/a	1
12.472	0.54999194	FRICTION	lure	n/a	n/a	n/a	1
13.022	0.604452518	CREED	lure	n/a	n/a	n/a	1
13.627	0.631513217	SIESTA	lure	n/a	n/a	n/a	1
14.258	0.39734299	HEARTH	lure	n/a	n/a	n/a	1
14.656	0.516655116	CAB	lure	n/a	n/a	n/a	1
15.172	0.433331313	MARSH	lure	n/a	n/a	n/a	1
15.606	0.399992239	MONOPOLY	lure	n/a	n/a	n/a	1
16.006	0.316663214	COTTONSEED	lure	n/a	n/a	n/a	1
16.322	2.016926676	TRUCK	long	n/a	n/a	n/a	1
18.339	0.599704688	BUGGY	lure	n/a	n/a	n/a	1
18.939	0.599989346	MARL	lure	n/a	n/a	n/a	1
19.539	0.416662864	CRACKER	lure	n/a	n/a	n/a	1
19.956	0.63336273	BATTALION	lure	n/a	n/a	n/a	1
20.589	0.433286138	WARE	lure	n/a	n/a	n/a	1
21.022	0.717393347	LAMB	lure	n/a	n/a	n/a	1
21.74	0.749254472	BEEFEATER	lure	n/a	n/a	n/a	1
22.489	0.466654807	EXPERT	lure	n/a	n/a	n/a	1
22.956	0.73332678	BRAINWAVE	lure	n/a	n/a	n/a	1
23.689	0.616657811	CONTINUITY	lure	n/a	n/a	n/a	1
24.306	0.516657909	LETTERBOX	lure	n/a	n/a	n/a	1
24.822	2.016641024	DIRT	long	n/a	n/a	n/a	1
26.839	0.383325565	CLOTHESPIN	lure	n/a	n/a	n/a	1
27.222	0.700045528	DEBTOR	lure	n/a	n/a	n/a	1
27.922	0.799932626	MADMEN	lure	n/a	n/a	n/a	1
28.722	0.600045568	DISSIDENCE	lure	n/a	n/a	n/a	1
29.322	0.666656025	SPRAYER	lure	n/a	n/a	n/a	1
29.989	0.649937171	STEAMER	lure	n/a	n/a	n/a	1
30.639	0.466657388	SOCIOLOGY	lure	n/a	n/a	n/a	1
31.105	0.666660709	BLUEFISH	lure	n/a	n/a	n/a	1
31.772	0.749986617	BRAT	lure	n/a	n/a	n/a	1
32.522	0.483325475	ATTRACTION	lure	n/a	n/a	n/a	1
33.005	2.018653282	HAMMER	long	n/a	n/a	n/a	1
35.024	0.331317715	CORRELATE	lure	n/a	n/a	n/a	1
35.355	0.400054956	MIDDEN	lure	n/a	n/a	n/a	1
35.755	0.366598276	READERSHIP	lure	n/a	n/a	n/a	1
36.122	0.633382958	INTEGRITY	lure	n/a	n/a	n/a	1
36.755	0.616599172	FREELOADER	lure	n/a	n/a	n/a	1
37.372	0.749990232	SUITCASE	lure	n/a	n/a	n/a	1
38.122	0.716964453	ARTISTRY	lure	n/a	n/a	n/a	1
38.839	0.649685128	HONEYDEW	lure	n/a	n/a	n/a	1
39.489	0.600030674	CAVERN	lure	n/a	n/a	n/a	1
40.089	0.733335184	PROTEGEE	lure	n/a	n/a	n/a	1
40.822	0.583270522	RAINSTORM	lure	n/a	n/a	n/a	1
41.405	0.649990587	SANDPAPER	short	n/a	n/a	n/a	1
42.055	0.499992242	BEDSTEAD	lure	n/a	n/a	n/a	1
42.555	0.399991944	SON	lure	n/a	n/a	n/a	1
42.955	0.549993781	MORNING	lure	n/a	n/a	n/a	1
43.505	0.649992239	PLAQUE	lure	n/a	n/a	n/a	1
44.155	0.383326302	PEDIMENT	lure	n/a	n/a	n/a	1
44.539	0.453064411	PRODUCT	lure	n/a	n/a	n/a	1
44.992	0.715567812	PUPPET	lure	n/a	n/a	n/a	1
45.707	0.464675881	PREVISION	lure	n/a	n/a	n/a	1
46.172	0.449997503	METEOROID	lure	n/a	n/a	n/a	1
46.622	0.46665929	CATTLE	lure	n/a	n/a	n/a	1
47.089	0.533324212	COLUMNIST	lure	n/a	n/a	n/a	1
47.622	0.516662744	TEXTBOOK	lure	n/a	n/a	n/a	1
48.139	0.333375618	CAPACITOR	lure	n/a	n/a	n/a	1
48.472	0.587200284	SENDER	lure	n/a	n/a	n/a	1
49.059	0.562774803	CHIEFTAIN	lure	n/a	n/a	n/a	1
49.622	1.016663674	PINEAPPLE	fruit	680	2	2	1
50.639	0.666605352	BAYOU	lure	n/a	n/a	n/a	1
51.305	0.716652615	SUFFIX	lure	n/a	n/a	n/a	1
52.022	0.333330752	FOLK	lure	n/a	n/a	n/a	1
52.355	0.499993294	NEWSPAPER	lure	n/a	n/a	n/a	1
52.855	0.649993687	CHALET	lure	n/a	n/a	n/a	1
53.505	0.516659014	DIVORCEE	lure	n/a	n/a	n/a	1
54.022	0.666655669	ENCHANTER	lure	n/a	n/a	n/a	1
54.688	0.71665404	PUFFBALL	lure	n/a	n/a	n/a	1
55.405	0.721258984	WINDSOCK	lure	n/a	n/a	n/a	1
56.126	0.378731168	WOMANKIND	lure	n/a	n/a	n/a	1
56.505	0.549984639	ATROCITY	lure	n/a	n/a	n/a	1
57.055	0.683327516	PITCHFORK	lure	n/a	n/a	n/a	1
57.738	0.616659269	SCREEN	short	n/a	n/a	n/a	1
58.355	0.616656768	BUNNY	lure	n/a	n/a	n/a	1
58.972	0.699986429	PRESENTER	lure	n/a	n/a	n/a	1
59.672	0.43332764	SLIPPER	lure	n/a	n/a	n/a	1
60.105	0.649992665	SPANNER	lure	n/a	n/a	n/a	1
60.755	0.749985084	VICTORY	lure	n/a	n/a	n/a	1
61.505	0.533330414	INTRICACY	lure	n/a	n/a	n/a	1
62.038	0.366697643	TANDEM	lure	n/a	n/a	n/a	1
62.405	0.316622079	AGITATOR	lure	n/a	n/a	n/a	1
62.722	0.366666921	DRESSMAKER	lure	n/a	n/a	n/a	1
63.088	0.383323841	CULPRIT	lure	n/a	n/a	n/a	1
63.472	0.466719458	PARAGRAPH	lure	n/a	n/a	n/a	1
63.938	0.633269399	BLURB	lure	n/a	n/a	n/a	1
64.572	0.550027372	PROJECTILE	lure	n/a	n/a	n/a	1
65.122	0.366625231	SHOPKEEPER	lure	n/a	n/a	n/a	1
65.488	0.349991494	STEPSISTER	lure	n/a	n/a	n/a	1
65.838	1.016656378	ELDERBERRY	fruit	663	2	2	1
66.855	0.466653913	DESK	lure	n/a	n/a	n/a	1
67.322	0.716658382	DERIVATION	lure	n/a	n/a	n/a	1
68.038	0.549989985	FOOTSTOOL	lure	n/a	n/a	n/a	1
68.588	0.316661469	DIPHTHERIA	lure	n/a	n/a	n/a	1
68.905	0.616661017	ECONOMY	lure	n/a	n/a	n/a	1
69.522	0.599992241	RESERVOIR	lure	n/a	n/a	n/a	1
70.122	0.616660135	MICROSCOPY	lure	n/a	n/a	n/a	1
70.738	0.599985789	MAKER	lure	n/a	n/a	n/a	1
71.338	0.516665362	PORTFOLIO	lure	n/a	n/a	n/a	1
71.855	0.33332803	TODDLER	lure	n/a	n/a	n/a	1
72.188	0.366700584	FLAGSTAFF	lure	n/a	n/a	n/a	1
72.555	0.536286602	GEOGRAPHY	lure	n/a	n/a	n/a	1
73.091	0.484343873	DOORMAN	lure	n/a	n/a	n/a	1
73.576	0.762702782	ACCESSORY	lure	n/a	n/a	n/a	1
74.338	1.049921169	GRAPEFRUIT	fruit	667	2	2	1
75.388	0.533320849	DEVIANCY	lure	n/a	n/a	n/a	1
75.922	0.66670003	DOWNTREND	lure	n/a	n/a	n/a	1
76.588	0.716618571	MUFFIN	lure	n/a	n/a	n/a	1
77.305	0.616651726	SYMMETRY	lure	n/a	n/a	n/a	1
77.921	0.73332775	THUMBTACK	lure	n/a	n/a	n/a	1
78.655	0.433321176	ARTIFACT	lure	n/a	n/a	n/a	1
79.088	0.683324006	WORKER	lure	n/a	n/a	n/a	1
79.771	0.552352129	OATH	lure	n/a	n/a	n/a	1
80.324	0.414555662	CIDER	lure	n/a	n/a	n/a	1
80.738	0.783070195	CONCERT	lure	n/a	n/a	n/a	1
81.521	0.499991467	POSTER	lure	n/a	n/a	n/a	1
82.021	0.349992792	MESSAGE	lure	n/a	n/a	n/a	1
82.371	1.016657925	PLUM	fruit	764	2	2	1
83.388	0.749986842	HAILSTONE	lure	n/a	n/a	n/a	1
84.138	0.45320786	CARGO	lure	n/a	n/a	n/a	1
84.591	0.383568252	CULTURE	lure	n/a	n/a	n/a	1
84.975	0.646533233	WRAPPER	lure	n/a	n/a	n/a	1
85.621	0.450083381	JUNGLE	lure	n/a	n/a	n/a	1
86.071	0.449947462	AGITATION	lure	n/a	n/a	n/a	1
86.521	0.766613654	ALLOWANCE	lure	n/a	n/a	n/a	1
87.288	0.366664906	CRYPTOGRAM	lure	n/a	n/a	n/a	1
87.655	0.333327997	SAX	lure	n/a	n/a	n/a	1
87.988	0.733321844	BEATER	lure	n/a	n/a	n/a	1
88.721	0.516657078	OMEN	lure	n/a	n/a	n/a	1
89.238	0.766656035	WIDOWER	lure	n/a	n/a	n/a	1
90.005	0.383327401	DIPLOMACY	lure	n/a	n/a	n/a	1
90.388	2.018120656	BUBBLE	long	n/a	n/a	n/a	1
92.406	0.700569352	BOULEVARD	lure	n/a	n/a	n/a	1
93.107	0.564595135	BAKER	lure	n/a	n/a	n/a	1
93.671	0.49999433	BANGLE	lure	n/a	n/a	n/a	1
94.171	0.733322813	WASP	lure	n/a	n/a	n/a	1
94.905	0.316661429	CUTICLE	lure	n/a	n/a	n/a	1
95.221	0.399994511	WATT	lure	n/a	n/a	n/a	1
95.621	0.466660809	BEDTIME	lure	n/a	n/a	n/a	1
96.088	0.433329347	FILMSTRIP	lure	n/a	n/a	n/a	1
96.521	0.416659214	BODYWORK	lure	n/a	n/a	n/a	1
96.938	0.349994656	EXCISION	lure	n/a	n/a	n/a	1
97.288	0.466662393	DAYBED	lure	n/a	n/a	n/a	1
97.755	0.633320873	MOTHBALL	lure	n/a	n/a	n/a	1
98.388	0.699991422	IMMUNITY	lure	n/a	n/a	n/a	1
99.088	2.016637932	ROPE	long	n/a	n/a	n/a	1
101.104	0.349994179	WHOOPEE	lure	n/a	n/a	n/a	1
101.454	0.43336584	COUNTY	lure	n/a	n/a	n/a	1
101.888	0.466658875	GRAPHITE	lure	n/a	n/a	n/a	1
102.355	0.599953373	JAVELIN	lure	n/a	n/a	n/a	1
102.954	0.49999567	DEPLETION	lure	n/a	n/a	n/a	1
103.454	0.533365315	PARKHOUSE	lure	n/a	n/a	n/a	1
103.988	0.766616503	SEASCAPE	lure	n/a	n/a	n/a	1
104.754	0.416657592	HORSEHAIR	lure	n/a	n/a	n/a	1
105.171	0.483325315	SECLUSION	lure	n/a	n/a	n/a	1
105.654	0.649990975	REDCOAT	lure	n/a	n/a	n/a	1
106.304	0.749994013	CROSSROAD	lure	n/a	n/a	n/a	1
107.054	0.616650737	PONE	lure	n/a	n/a	n/a	1
107.671	1.016652385	NECTARINE	fruit	n/a	n/a	2	0
108.688	0.433329571	OUTLET	lure	n/a	n/a	n/a	1
109.121	0.449991718	CHOPSTICK	lure	n/a	n/a	n/a	1
109.571	0.533330217	PIPELINE	lure	n/a	n/a	n/a	1
110.104	0.399992518	LONGHORN	lure	n/a	n/a	n/a	1
110.504	0.466659214	SINCERITY	lure	n/a	n/a	n/a	1
110.971	0.450105306	COSTUMER	lure	n/a	n/a	n/a	1
111.421	0.616547262	ROWER	lure	n/a	n/a	n/a	1
112.038	0.64999307	EXALTATION	lure	n/a	n/a	n/a	1
112.688	0.350384373	DEPARTMENT	lure	n/a	n/a	n/a	1
113.038	0.39960439	CHARACTER	lure	n/a	n/a	n/a	1
113.438	0.416655975	DRUMMER	lure	n/a	n/a	n/a	1
113.854	0.316703645	BRIBERY	lure	n/a	n/a	n/a	1
114.171	0.566658321	CULT	lure	n/a	n/a	n/a	1
114.738	0.699947472	HUT	lure	n/a	n/a	n/a	1
115.438	0.483333947	BEAGLE	lure	n/a	n/a	n/a	1
115.921	0.65005289	VAULT	short	n/a	n/a	n/a	1
116.571	0.399936625	KNOWLEDGE	lure	n/a	n/a	n/a	1
116.971	0.549983442	WARMUP	lure	n/a	n/a	n/a	1
117.521	0.383325129	SUBSIDY	lure	n/a	n/a	n/a	1
117.904	0.600003301	WINDBAG	lure	n/a	n/a	n/a	1
118.504	0.654464489	FACULTY	lure	n/a	n/a	n/a	1
119.159	0.395517919	KITE	lure	n/a	n/a	n/a	1
119.554	0.716646699	HANDICRAFT	lure	n/a	n/a	n/a	1
120.271	0.533332861	TREADMILL	lure	n/a	n/a	n/a	1
120.804	0.749989312	PYTHON	lure	n/a	n/a	n/a	1
121.554	0.649986769	AFTERMATH	lure	n/a	n/a	n/a	1
122.204	0.499994636	DEPENDENCE	lure	n/a	n/a	n/a	1
122.704	0.666652156	POSER	lure	n/a	n/a	n/a	1
123.371	0.616657676	VICEROY	lure	n/a	n/a	n/a	1
123.987	0.616662373	MATTER	short	n/a	n/a	n/a	1
124.604	0.733320471	MUSICALITY	lure	n/a	n/a	n/a	1
125.337	0.533326484	DOE	lure	n/a	n/a	n/a	1
125.871	0.54999647	CONTESTANT	lure	n/a	n/a	n/a	1
126.421	0.416655621	LATITUDE	lure	n/a	n/a	n/a	1
126.837	0.466660247	JUMPER	lure	n/a	n/a	n/a	1
127.304	0.633325469	BREWERY	lure	n/a	n/a	n/a	1
127.937	0.433323175	LAWMEN	lure	n/a	n/a	n/a	1
128.371	0.733330638	DENTIST	lure	n/a	n/a	n/a	1
129.104	0.433319554	PARENTHOOD	lure	n/a	n/a	n/a	1
129.537	0.366661583	FREEDMAN	lure	n/a	n/a	n/a	1
129.904	0.716660771	CADDY	lure	n/a	n/a	n/a	1
130.621	0.483321589	BRIDE	lure	n/a	n/a	n/a	1
131.104	0.516664139	ZONE	lure	n/a	n/a	n/a	1
131.621	0.416660204	CELIBACY	lure	n/a	n/a	n/a	1
132.037	0.704816018	CHAMPAGNE	lure	n/a	n/a	n/a	1
132.742	0.661830884	SUDS	short	n/a	n/a	n/a	1
133.404	0.633321171	CONFECTION	lure	n/a	n/a	n/a	1
134.037	0.3833335	SEMICIRCLE	lure	n/a	n/a	n/a	1
134.421	0.599987345	EXPEDIENCE	lure	n/a	n/a	n/a	1
135.021	0.699987309	LOOKUP	lure	n/a	n/a	n/a	1
135.721	0.733327446	ASYLUM	lure	n/a	n/a	n/a	1
136.454	0.683319984	HEADLAND	lure	n/a	n/a	n/a	1
137.137	0.683324858	BRUSHWORK	lure	n/a	n/a	n/a	1
137.821	0.533325675	GENTILITY	lure	n/a	n/a	n/a	1
138.354	0.64999626	LANDFALL	lure	n/a	n/a	n/a	1
139.004	0.683324348	CHOLERA	lure	n/a	n/a	n/a	1
139.687	0.749985445	MANATEE	lure	n/a	n/a	n/a	1
140.437	0.516655139	MUSCLEMAN	lure	n/a	n/a	n/a	1
140.954	0.616662734	DENT	short	n/a	n/a	n/a	1
141.571	0.466657048	MARE	lure	n/a	n/a	n/a	1
142.037	0.433365478	SOOT	lure	n/a	n/a	n/a	1
142.471	0.516626342	HOSPICE	lure	n/a	n/a	n/a	1
142.987	0.586114497	VENTRICLE	lure	n/a	n/a	n/a	1
143.573	0.680531677	WEDLOCK	lure	n/a	n/a	n/a	1
144.254	0.483370511	RIVER	lure	n/a	n/a	n/a	1
144.737	0.58327844	THROWER	lure	n/a	n/a	n/a	1
145.321	0.683320959	SHEEPSKIN	lure	n/a	n/a	n/a	1
146.004	0.549999482	CASSEROLE	lure	n/a	n/a	n/a	1
146.554	0.616650486	MIDAIR	lure	n/a	n/a	n/a	1
147.17	0.599990551	NOVA	lure	n/a	n/a	n/a	1
147.77	0.533326428	GANGSTER	lure	n/a	n/a	n/a	1
148.304	0.59999019	TENDRIL	lure	n/a	n/a	n/a	1
148.904	2.01779841	TERRACE	long	n/a	n/a	n/a	1
150.922	0.51550424	ALCHEMY	lure	n/a	n/a	n/a	1
151.437	0.416665056	ANALYST	lure	n/a	n/a	n/a	1
151.854	0.733318061	SANDMAN	lure	n/a	n/a	n/a	1
152.587	0.716651845	MOTORCADE	lure	n/a	n/a	n/a	1
153.304	0.683330565	YOGA	lure	n/a	n/a	n/a	1
153.987	0.666653862	PUNCHER	lure	n/a	n/a	n/a	1
154.654	0.44999552	ADMIRATION	lure	n/a	n/a	n/a	1
155.104	0.583328083	PROJECT	lure	n/a	n/a	n/a	1
155.687	0.633318025	PASSENGER	lure	n/a	n/a	n/a	1
156.32	0.549992033	BRACELET	lure	n/a	n/a	n/a	1
156.87	1.016651618	MELON	fruit	729	2	2	1
157.887	0.633325321	RETRACTION	lure	n/a	n/a	n/a	1
158.52	0.716656607	SANDSTORM	lure	n/a	n/a	n/a	1
159.237	0.349997862	DETRIMENT	lure	n/a	n/a	n/a	1
159.587	0.349995699	CALYPSO	lure	n/a	n/a	n/a	1
159.937	0.366656787	TEABAG	lure	n/a	n/a	n/a	1
160.304	0.716658258	VIRILITY	lure	n/a	n/a	n/a	1
161.02	0.666661544	EPISTLE	lure	n/a	n/a	n/a	1
161.687	0.749986727	FANFARE	lure	n/a	n/a	n/a	1
162.437	0.583324799	JAILBREAK	lure	n/a	n/a	n/a	1
163.02	0.533322669	EMPHYSEMA	lure	n/a	n/a	n/a	1
163.554	0.649994868	ENGINE	lure	n/a	n/a	n/a	1
164.204	0.716653383	CELERY	lure	n/a	n/a	n/a	1
164.92	0.333367197	MAYONNAISE	lure	n/a	n/a	n/a	1
165.254	0.61661709	PYRAMID	short	n/a	n/a	n/a	1
165.87	0.753611209	EXCEPTION	lure	n/a	n/a	n/a	1
166.624	0.663078296	WORKINGMEN	lure	n/a	n/a	n/a	1
167.287	0.483283912	MOTHERLAND	lure	n/a	n/a	n/a	1
167.77	0.666661555	CROSSFIRE	lure	n/a	n/a	n/a	1
168.437	0.699986686	CAPTIVITY	lure	n/a	n/a	n/a	1
169.137	0.549991599	SHUTTLE	lure	n/a	n/a	n/a	1
169.687	0.516664178	DUMBBELL	lure	n/a	n/a	n/a	1
170.204	0.399989981	BRAVADO	lure	n/a	n/a	n/a	1
170.603	0.499997024	BOW	lure	n/a	n/a	n/a	1
171.103	0.533325908	TALON	lure	n/a	n/a	n/a	1
171.637	0.649981832	GESTATION	lure	n/a	n/a	n/a	1
172.287	0.533333417	CARRYOUT	lure	n/a	n/a	n/a	1
172.82	0.499995728	SERGEANT	lure	n/a	n/a	n/a	1
173.32	2.016628068	CONE	long	n/a	n/a	n/a	1
175.337	0.333337064	FARMER	lure	n/a	n/a	n/a	1
175.67	0.566657163	THEATRE	lure	n/a	n/a	n/a	1
176.237	0.683327498	RECORD	lure	n/a	n/a	n/a	1
176.92	0.749981379	ENTIRETY	lure	n/a	n/a	n/a	1
177.67	0.449995201	RACER	lure	n/a	n/a	n/a	1
178.12	0.433326425	CRICKET	lure	n/a	n/a	n/a	1
178.553	0.416656323	SATELLITE	lure	n/a	n/a	n/a	1
178.97	0.383336948	PERMAFROST	lure	n/a	n/a	n/a	1
179.353	0.583324884	BLOKE	lure	n/a	n/a	n/a	1
179.937	0.59998557	LIVESTOCK	lure	n/a	n/a	n/a	1
180.537	0.716661977	BANQUET	lure	n/a	n/a	n/a	1
181.253	0.516651673	FAIRGROUND	lure	n/a	n/a	n/a	1
181.77	0.616665366	MATCH	short	n/a	n/a	n/a	1
182.387	0.7333176	ION	lure	n/a	n/a	n/a	1
183.12	0.36666621	MOONSHINE	lure	n/a	n/a	n/a	1
183.487	0.7499816	EXCELLENCY	lure	n/a	n/a	n/a	1
184.237	0.399993488	CHEESECAKE	lure	n/a	n/a	n/a	1
184.637	0.433327465	DONATION	lure	n/a	n/a	n/a	1
185.07	0.63333086	POSITIVISM	lure	n/a	n/a	n/a	1
185.703	0.649992076	PRECEDENT	lure	n/a	n/a	n/a	1
186.353	0.599989354	KNOCKOUT	lure	n/a	n/a	n/a	1
186.953	0.583319048	REPRIEVE	lure	n/a	n/a	n/a	1
187.537	0.666699262	SANDER	lure	n/a	n/a	n/a	1
188.203	0.583343895	EMBROIDERY	lure	n/a	n/a	n/a	1
188.787	0.433266751	ANIMAL	lure	n/a	n/a	n/a	1
189.22	0.733332005	VIOLINIST	lure	n/a	n/a	n/a	1
189.953	0.749978862	OUTRIGGER	lure	n/a	n/a	n/a	1
190.703	2.016644362	LIGHT	long	n/a	n/a	n/a	1
192.72	0.616657564	MARIONETTE	lure	n/a	n/a	n/a	1
193.336	0.549993228	PARADIGM	lure	n/a	n/a	n/a	1
193.886	0.649984213	INVOCATION	lure	n/a	n/a	n/a	1
194.536	0.449996821	HUMANISM	lure	n/a	n/a	n/a	1
194.986	0.584047128	FRIDGE	lure	n/a	n/a	n/a	1
195.571	0.599266899	GEYSER	lure	n/a	n/a	n/a	1
196.17	0.56666419	DEFICIENCY	lure	n/a	n/a	n/a	1
196.736	0.566659226	HARDWARE	lure	n/a	n/a	n/a	1
197.303	0.649983777	SAVANNAH	lure	n/a	n/a	n/a	1
197.953	0.749991805	COERCION	lure	n/a	n/a	n/a	1
198.703	0.49999052	FASTENER	lure	n/a	n/a	n/a	1
199.203	2.01663937	BRIDGE	long	n/a	n/a	n/a	1
201.22	0.450003123	MADMAN	lure	n/a	n/a	n/a	1
201.67	0.700018791	TIMEPIECE	lure	n/a	n/a	n/a	1
202.37	0.616618657	WATERLINE	lure	n/a	n/a	n/a	1
202.986	0.633321034	PELICAN	lure	n/a	n/a	n/a	1
203.62	0.666663627	IRRITATION	lure	n/a	n/a	n/a	1
204.286	0.399994437	HAG	lure	n/a	n/a	n/a	1
204.686	0.583318712	DAIRYMAN	lure	n/a	n/a	n/a	1
205.27	0.666658009	STOOL	lure	n/a	n/a	n/a	1
205.936	0.483326291	GYMNAST	lure	n/a	n/a	n/a	1
206.42	0.716663662	CELLOPHANE	lure	n/a	n/a	n/a	1
207.136	0.466655239	GARGOYLE	lure	n/a	n/a	n/a	1
207.603	2.016637061	BUCKLE	long	n/a	n/a	n/a	1
209.62	0.670577474	BIOSPHERE	lure	n/a	n/a	n/a	1
210.29	0.646073659	ADMIRAL	lure	n/a	n/a	n/a	1
210.936	0.733325765	RACEWAY	lure	n/a	n/a	n/a	1
211.67	0.5499921	PUTTER	lure	n/a	n/a	n/a	1
212.22	0.599991849	ISOLATION	lure	n/a	n/a	n/a	1
212.82	0.499991736	ORIGINATOR	lure	n/a	n/a	n/a	1
213.32	0.449993065	AMMO	lure	n/a	n/a	n/a	1
213.77	0.650042091	TRIO	lure	n/a	n/a	n/a	1
214.42	0.349942092	VIOLIN	lure	n/a	n/a	n/a	1
214.77	0.66665167	SUFFERER	lure	n/a	n/a	n/a	1
215.436	0.466664834	MEMBER	lure	n/a	n/a	n/a	1
215.903	0.650048676	TUNNEL	short	n/a	n/a	n/a	1
216.553	0.483266179	INTERPLAY	lure	n/a	n/a	n/a	1
217.036	0.583324508	RIBOFLAVIN	lure	n/a	n/a	n/a	1
217.619	0.750029462	TOPSAIL	lure	n/a	n/a	n/a	1
218.37	0.366663363	ALLEGATION	lure	n/a	n/a	n/a	1
218.736	0.366625144	PHONOLOGY	lure	n/a	n/a	n/a	1
219.103	0.433375477	AUNTIE	lure	n/a	n/a	n/a	1
219.536	0.433273465	HUMPBACK	lure	n/a	n/a	n/a	1
219.969	0.516658795	RUBDOWN	lure	n/a	n/a	n/a	1
220.486	0.366660281	MOTORIST	lure	n/a	n/a	n/a	1
220.853	0.799990744	THEATER	lure	n/a	n/a	n/a	1
221.653	0.633325872	WORKBOOK	lure	n/a	n/a	n/a	1
222.286	0.349989354	MEDIATION	lure	n/a	n/a	n/a	1
222.636	0.500000802	FACT	lure	n/a	n/a	n/a	1
223.136	0.416655355	WHALER	lure	n/a	n/a	n/a	1
223.553	0.733329473	BURGER	lure	n/a	n/a	n/a	1
224.286	0.433324391	PUEBLO	lure	n/a	n/a	n/a	1
224.719	0.716659054	COMPRESSOR	lure	n/a	n/a	n/a	1
225.436	0.683322148	FATE	lure	n/a	n/a	n/a	1
226.119	0.383322929	MARTINI	lure	n/a	n/a	n/a	1
226.503	NaN	PLENTY	lure	n/a	n/a	n/a	1
238.019	0.71665513	POTHOLE	lure	n/a	n/a	n/a	1
238.736	0.483324667	TROMBONE	lure	n/a	n/a	n/a	1
239.219	0.666660707	FINALITY	lure	n/a	n/a	n/a	1
239.886	0.649992599	UPSWING	lure	n/a	n/a	n/a	1
240.536	0.585994603	EXPOSITION	lure	n/a	n/a	n/a	1
241.122	0.747317588	HONEYBEE	lure	n/a	n/a	n/a	1
241.869	0.616660078	SANDPAPER	short	n/a	n/a	n/a	1
242.486	0.433327073	CRITERIA	lure	n/a	n/a	n/a	1
242.919	0.499991019	SERVANT	lure	n/a	n/a	n/a	1
243.419	0.549990331	JARGON	lure	n/a	n/a	n/a	1
243.969	0.566662401	PRISONER	lure	n/a	n/a	n/a	1
244.536	0.333326378	FREEDMEN	lure	n/a	n/a	n/a	1
244.869	0.766656151	PLAYTIME	lure	n/a	n/a	n/a	1
245.636	0.699987297	FOLLY	lure	n/a	n/a	n/a	1
246.336	0.449994669	CUCKOO	lure	n/a	n/a	n/a	1
246.786	0.649990039	GAINER	lure	n/a	n/a	n/a	1
247.436	0.499991507	COWHAND	lure	n/a	n/a	n/a	1
247.936	0.616659306	MANSION	lure	n/a	n/a	n/a	1
248.552	0.599988169	SHAMROCK	lure	n/a	n/a	n/a	1
249.152	0.716659549	PAMPHLET	lure	n/a	n/a	n/a	1
249.869	0.316661512	GHOST	lure	n/a	n/a	n/a	1
250.186	0.616661532	MATCH	short	n/a	n/a	n/a	1
250.802	0.599990811	JEEP	lure	n/a	n/a	n/a	1
251.402	0.449990679	NONPAYMENT	lure	n/a	n/a	n/a	1
251.852	0.683324997	CANNONBALL	lure	n/a	n/a	n/a	1
252.536	0.599993144	WAGON	lure	n/a	n/a	n/a	1
253.136	0.416657295	SKY	lure	n/a	n/a	n/a	1
253.552	0.399992045	CASHMERE	lure	n/a	n/a	n/a	1
253.952	0.566662671	BELLHOP	lure	n/a	n/a	n/a	1
254.519	0.46665996	BAROMETER	lure	n/a	n/a	n/a	1
254.986	0.649994589	DETERRENCE	lure	n/a	n/a	n/a	1
255.636	0.43332305	SUNDAE	lure	n/a	n/a	n/a	1
256.069	0.333329582	ARCHAISM	lure	n/a	n/a	n/a	1
256.402	0.383322565	FORMAT	lure	n/a	n/a	n/a	1
256.786	0.499996796	MOUTHFUL	lure	n/a	n/a	n/a	1
257.286	0.438050642	STREAKER	lure	n/a	n/a	n/a	1
257.724	0.511934888	GRASSLAND	lure	n/a	n/a	n/a	1
258.236	2.016639618	TERRACE	long	n/a	n/a	n/a	1
260.252	0.483321758	TRIBESMEN	lure	n/a	n/a	n/a	1
260.736	0.549995044	DIVULGENCE	lure	n/a	n/a	n/a	1
261.286	0.449993771	COMEBACK	lure	n/a	n/a	n/a	1
261.736	0.599991483	GAZETTE	lure	n/a	n/a	n/a	1
262.336	0.499989436	HAIKU	lure	n/a	n/a	n/a	1
262.835	0.449995623	INACTIVITY	lure	n/a	n/a	n/a	1
263.285	0.633327226	BUCKLER	lure	n/a	n/a	n/a	1
263.919	0.402048761	ALLUSION	lure	n/a	n/a	n/a	1
264.321	0.431270699	STRETCHER	lure	n/a	n/a	n/a	1
264.752	0.549994539	ADDRESSEE	lure	n/a	n/a	n/a	1
265.302	0.583321336	PROSPERITY	lure	n/a	n/a	n/a	1
265.885	0.466662184	MEATBALL	lure	n/a	n/a	n/a	1
266.352	0.616659166	CURTAIN	short	n/a	n/a	n/a	1
266.969	0.416696324	MISTER	lure	n/a	n/a	n/a	1
267.385	0.316626725	BIRD	lure	n/a	n/a	n/a	1
267.702	0.350049377	SKINNER	lure	n/a	n/a	n/a	1
268.052	0.649933628	FLEET	lure	n/a	n/a	n/a	1
268.702	0.766655704	MEMORANDUM	lure	n/a	n/a	n/a	1
269.469	0.683320332	MISTLETOE	lure	n/a	n/a	n/a	1
270.152	0.683326574	LOYALTY	lure	n/a	n/a	n/a	1
270.835	0.700039805	LENGTH	lure	n/a	n/a	n/a	1
271.535	0.633276171	FILAMENT	lure	n/a	n/a	n/a	1
272.169	0.583323869	CHARMER	lure	n/a	n/a	n/a	1
272.752	0.516657281	TALISMAN	lure	n/a	n/a	n/a	1
273.269	0.733323088	BUYER	lure	n/a	n/a	n/a	1
274.002	0.636556561	PROVEn/aCE	lure	n/a	n/a	n/a	1
274.639	2.015667338	ROPE	long	n/a	n/a	n/a	1
276.654	0.631497133	THERMOSTAT	lure	n/a	n/a	n/a	1
277.286	0.416229036	VASSAL	lure	n/a	n/a	n/a	1
277.702	0.366656189	NAVEL	lure	n/a	n/a	n/a	1
278.069	0.583323826	COASTER	lure	n/a	n/a	n/a	1
278.652	0.649995405	CONFERENCE	lure	n/a	n/a	n/a	1
279.302	0.366663026	LIQUEUR	lure	n/a	n/a	n/a	1
279.669	0.34998944	BOOKIE	lure	n/a	n/a	n/a	1
280.019	0.683327335	OBEDIENCE	lure	n/a	n/a	n/a	1
280.702	0.699992507	PATRON	lure	n/a	n/a	n/a	1
281.402	0.733322252	COP	lure	n/a	n/a	n/a	1
282.135	0.366657711	SCAVENGER	lure	n/a	n/a	n/a	1
282.502	1.016652544	BERRY	fruit	716	2	2	1
283.519	0.633323782	LEEWAY	lure	n/a	n/a	n/a	1
284.152	0.483670177	HOLLY	lure	n/a	n/a	n/a	1
284.636	0.437481983	PRESERVER	lure	n/a	n/a	n/a	1
285.073	0.495491873	NECKTIE	lure	n/a	n/a	n/a	1
285.569	0.549994271	ACETATE	lure	n/a	n/a	n/a	1
286.118	0.599993197	SHOWMEN	lure	n/a	n/a	n/a	1
286.718	0.616660299	AIRCRAFT	lure	n/a	n/a	n/a	1
287.335	0.700277156	NIGHTMARE	lure	n/a	n/a	n/a	1
288.035	0.366372171	BRA	lure	n/a	n/a	n/a	1
288.402	0.349991065	BICYCLIST	lure	n/a	n/a	n/a	1
288.752	0.699989462	HOMOPHONE	lure	n/a	n/a	n/a	1
289.452	0.366663223	APOSTROPHE	lure	n/a	n/a	n/a	1
289.818	0.749989923	CARETAKER	lure	n/a	n/a	n/a	1
290.568	0.61665874	SUDS	short	n/a	n/a	n/a	1
291.185	0.47123601	SIDESHOW	lure	n/a	n/a	n/a	1
291.656	0.595415222	SOLVENCY	lure	n/a	n/a	n/a	1
292.252	0.399995291	AMNESIA	lure	n/a	n/a	n/a	1
292.652	0.56665693	FEATHER	lure	n/a	n/a	n/a	1
293.218	0.566657689	INNKEEPER	lure	n/a	n/a	n/a	1
293.785	0.383327848	SPILLWAY	lure	n/a	n/a	n/a	1
294.168	0.399992148	STIGMATA	lure	n/a	n/a	n/a	1
294.568	0.416664914	HALFBACK	lure	n/a	n/a	n/a	1
294.985	0.616657024	MEDICATION	lure	n/a	n/a	n/a	1
295.602	0.483325208	ABDUCTION	lure	n/a	n/a	n/a	1
296.085	0.449995229	EJECTION	lure	n/a	n/a	n/a	1
296.535	0.716655295	PROJECTOR	lure	n/a	n/a	n/a	1
297.252	0.316665263	DIPPER	lure	n/a	n/a	n/a	1
297.568	0.433320829	AISLE	lure	n/a	n/a	n/a	1
298.002	0.68332674	COURIER	lure	n/a	n/a	n/a	1
298.685	2.016636169	BUBBLE	long	n/a	n/a	n/a	1
300.702	0.699990506	GREASER	lure	n/a	n/a	n/a	1
301.402	0.499991089	ABSURDITY	lure	n/a	n/a	n/a	1
301.902	0.733325487	HOPPER	lure	n/a	n/a	n/a	1
302.635	0.599988499	LULLABY	lure	n/a	n/a	n/a	1
303.235	0.549992603	TEASER	lure	n/a	n/a	n/a	1
303.785	0.516661189	MODERNISM	lure	n/a	n/a	n/a	1
304.302	0.333326573	DEAN	lure	n/a	n/a	n/a	1
304.635	0.399994595	JUNKIE	lure	n/a	n/a	n/a	1
305.035	0.516660409	PRAGMATISM	lure	n/a	n/a	n/a	1
305.552	0.733320143	KAYAK	lure	n/a	n/a	n/a	1
306.285	0.499995104	TUCKER	lure	n/a	n/a	n/a	1
306.785	1.01665269	BLACKBERRY	fruit	608	2	2	1
307.802	0.788080946	MALCONTENT	lure	n/a	n/a	n/a	1
308.59	0.481784752	REPOSITORY	lure	n/a	n/a	n/a	1
309.071	0.396775708	GRAIL	lure	n/a	n/a	n/a	1
309.468	0.549994393	LEGITIMACY	lure	n/a	n/a	n/a	1
310.018	0.399991044	ROCKETRY	lure	n/a	n/a	n/a	1
310.418	0.516665047	DOMIn/aCE	lure	n/a	n/a	n/a	1
310.935	0.5666529	THERAPY	lure	n/a	n/a	n/a	1
311.501	0.516659329	BUOYANCY	lure	n/a	n/a	n/a	1
312.018	0.466703757	BOULDER	lure	n/a	n/a	n/a	1
312.485	0.754029198	TEACUP	lure	n/a	n/a	n/a	1
313.239	0.695909891	LIMELIGHT	lure	n/a	n/a	n/a	1
313.935	0.733321257	SUBMARINE	lure	n/a	n/a	n/a	1
314.668	0.33332624	SYNAGOGUE	lure	n/a	n/a	n/a	1
315.001	1.016655381	NECTARINE	fruit	732	2	2	1
316.018	0.366657563	BUCCANEER	lure	n/a	n/a	n/a	1
316.385	0.683327275	DOORKEEPER	lure	n/a	n/a	n/a	1
317.068	0.733322892	DUD	lure	n/a	n/a	n/a	1
317.801	0.366659726	DUEL	lure	n/a	n/a	n/a	1
318.168	0.38332999	BROADSHEET	lure	n/a	n/a	n/a	1
318.551	0.516657462	WOODPILE	lure	n/a	n/a	n/a	1
319.068	0.366663416	DUSTER	lure	n/a	n/a	n/a	1
319.435	0.66665839	REPETITION	lure	n/a	n/a	n/a	1
320.101	0.433321444	PACKAGE	lure	n/a	n/a	n/a	1
320.535	0.666663301	OUTPOURING	lure	n/a	n/a	n/a	1
321.201	0.583320583	STABILITY	lure	n/a	n/a	n/a	1
321.785	0.599989779	ROSETTE	lure	n/a	n/a	n/a	1
322.385	0.716659996	EXPOSURE	lure	n/a	n/a	n/a	1
323.101	0.349994077	DRUMSTICK	lure	n/a	n/a	n/a	1
323.451	0.616709553	SCREEN	short	n/a	n/a	n/a	1
324.068	0.449938968	GURU	lure	n/a	n/a	n/a	1
324.518	0.733325191	ADVERSARY	lure	n/a	n/a	n/a	1
325.251	0.316662234	BASKETBALL	lure	n/a	n/a	n/a	1
325.568	0.716656225	SLAPSTICK	lure	n/a	n/a	n/a	1
326.285	0.566656014	HANDBILL	lure	n/a	n/a	n/a	1
326.851	0.469106412	WOLFHOUND	lure	n/a	n/a	n/a	1
327.32	0.716560458	SLACKER	lure	n/a	n/a	n/a	1
328.037	0.664310556	KERCHIEF	lure	n/a	n/a	n/a	1
328.701	0.399992996	FLORIST	lure	n/a	n/a	n/a	1
329.101	0.699992851	RELATION	lure	n/a	n/a	n/a	1
329.801	0.399991223	PROTRUSION	lure	n/a	n/a	n/a	1
330.201	0.650030068	ASTRONAUT	lure	n/a	n/a	n/a	1
330.851	0.716659933	JOCKEY	lure	n/a	n/a	n/a	1
331.568	0.733278415	CAVITY	lure	n/a	n/a	n/a	1
332.301	2.016639151	BRIDGE	long	n/a	n/a	n/a	1
334.318	0.483327997	HAYSTACK	lure	n/a	n/a	n/a	1
334.801	0.50003303	FINGERTIP	lure	n/a	n/a	n/a	1
335.301	0.68327925	TOMAHAWK	lure	n/a	n/a	n/a	1
335.984	0.583331432	FUR	lure	n/a	n/a	n/a	1
336.568	0.699989054	SOMEONE	lure	n/a	n/a	n/a	1
337.268	0.666653374	RETRIAL	lure	n/a	n/a	n/a	1
337.934	0.366666019	GIVEAWAY	lure	n/a	n/a	n/a	1
338.301	0.520082154	CITY	lure	n/a	n/a	n/a	1
338.821	0.513233417	PERIOD	lure	n/a	n/a	n/a	1
339.334	0.433330015	DISRESPECT	lure	n/a	n/a	n/a	1
339.768	0.316711512	HOG	lure	n/a	n/a	n/a	1
340.084	0.616602054	FARMHAND	lure	n/a	n/a	n/a	1
340.701	2.016642583	LIGHT	long	n/a	n/a	n/a	1
342.718	0.449988181	WINDBREAK	lure	n/a	n/a	n/a	1
343.168	0.616662975	SORCERY	lure	n/a	n/a	n/a	1
343.784	0.499987936	SPINE	lure	n/a	n/a	n/a	1
344.284	0.433330702	STEPSON	lure	n/a	n/a	n/a	1
344.718	0.733319669	BALSAM	lure	n/a	n/a	n/a	1
345.451	0.433330673	MERGER	lure	n/a	n/a	n/a	1
345.884	0.649987128	NIECE	lure	n/a	n/a	n/a	1
346.534	0.616662498	RAGTAG	lure	n/a	n/a	n/a	1
347.151	0.533320907	ICEPACK	lure	n/a	n/a	n/a	1
347.684	0.499993859	MUSK	lure	n/a	n/a	n/a	1
348.184	0.349996982	CHIC	lure	n/a	n/a	n/a	1
348.534	0.535488534	HIPPO	lure	n/a	n/a	n/a	1
349.07	0.617341144	PYRAMID	short	n/a	n/a	n/a	1
349.687	0.613813324	SYMBOLISM	lure	n/a	n/a	n/a	1
350.301	0.466657044	RHUBARB	lure	n/a	n/a	n/a	1
350.768	0.683328447	BATTERY	lure	283	2	n/a	0
351.451	0.633319142	SIDEKICK	lure	n/a	n/a	n/a	1
352.084	0.549990013	OCEANSIDE	lure	n/a	n/a	n/a	1
352.634	0.399995081	QUILL	lure	n/a	n/a	n/a	1
353.034	0.516662428	GENE	lure	n/a	n/a	n/a	1
353.551	0.71665443	HAIRPIECE	lure	n/a	n/a	n/a	1
354.268	0.716654907	UNDERLING	lure	n/a	n/a	n/a	1
354.984	0.716659272	SANATORIUM	lure	n/a	n/a	n/a	1
355.701	0.449992275	NOTION	lure	n/a	n/a	n/a	1
356.151	0.516662958	HOMESTEAD	lure	n/a	n/a	n/a	1
356.667	0.416660747	COMMUNE	lure	n/a	n/a	n/a	1
357.084	2.016635121	TRUCK	long	n/a	n/a	n/a	1
359.101	0.699986973	SEALER	lure	n/a	n/a	n/a	1
359.801	0.533325444	COWARDICE	lure	n/a	n/a	n/a	1
360.334	0.399994018	ORATOR	lure	n/a	n/a	n/a	1
360.734	0.44999567	DARLING	lure	n/a	n/a	n/a	1
361.184	0.666658569	TITLE	lure	n/a	n/a	n/a	1
361.851	0.749989073	DEERSKIN	lure	n/a	n/a	n/a	1
362.601	0.799989679	BEACHHEAD	lure	n/a	n/a	n/a	1
363.401	0.549990529	HERON	lure	n/a	n/a	n/a	1
363.951	0.633321472	CONTENTION	lure	n/a	n/a	n/a	1
364.584	0.549992462	CASINO	lure	n/a	n/a	n/a	1
365.134	0.69999682	MOPED	lure	n/a	n/a	n/a	1
365.834	0.616650855	VAULT	short	n/a	n/a	n/a	1
366.451	0.499992488	HERRING	lure	n/a	n/a	n/a	1
366.951	0.533325711	SOBRIETY	lure	n/a	n/a	n/a	1
367.484	0.416661206	MONOTONE	lure	n/a	n/a	n/a	1
367.901	0.633329724	GREED	lure	n/a	n/a	n/a	1
368.534	0.468836454	SATIRIST	lure	n/a	n/a	n/a	1
369.003	0.681144871	ANONYMITY	lure	n/a	n/a	n/a	1
369.684	0.483327977	PONY	lure	n/a	n/a	n/a	1
370.167	0.59999164	LECTURER	lure	n/a	n/a	n/a	1
370.767	0.616652614	LANDLORD	lure	n/a	n/a	n/a	1
371.384	0.416662735	MONGREL	lure	n/a	n/a	n/a	1
371.801	0.467486015	FOOTER	lure	n/a	n/a	n/a	1
372.268	0.432502116	SALUTATION	lure	n/a	n/a	n/a	1
372.701	0.366660327	GARDENIA	lure	n/a	n/a	n/a	1
373.067	0.566659865	RHINESTONE	lure	n/a	n/a	n/a	1
373.634	0.766656537	POPULATION	lure	n/a	n/a	n/a	1
374.401	0.616654106	MATTER	short	n/a	n/a	n/a	1
375.017	0.483325326	NEWSREEL	lure	n/a	n/a	n/a	1
375.501	0.449997013	BELLBOY	lure	n/a	n/a	n/a	1
375.951	0.716656922	BRICKLAYER	lure	n/a	n/a	n/a	1
376.667	0.516661099	PATRIOTISM	lure	n/a	n/a	n/a	1
377.184	0.51665386	JEOPARDY	lure	n/a	n/a	n/a	1
377.701	0.466663541	DUCKWEED	lure	n/a	n/a	n/a	1
378.167	0.634221036	OINTMENT	lure	n/a	n/a	n/a	1
378.801	0.465759404	HYDRANT	lure	n/a	n/a	n/a	1
379.267	0.63332536	YAM	lure	n/a	n/a	n/a	1
379.9	0.383332029	RAINCOAT	lure	229	2	n/a	0
380.284	0.383328172	HONESTY	lure	n/a	n/a	n/a	1
380.667	0.683323468	BRONZE	lure	n/a	n/a	n/a	1
381.35	0.616652891	PLANER	lure	n/a	n/a	n/a	1
381.967	0.566663947	FOLKTALE	lure	n/a	n/a	n/a	1
382.534	0.349992987	ANTIQUITY	lure	n/a	n/a	n/a	1
382.884	2.016640311	DIRT	long	n/a	n/a	n/a	1
384.9	0.399993148	ROSEMARY	lure	n/a	n/a	n/a	1
385.3	0.649987545	STATEHOOD	lure	n/a	n/a	n/a	1
385.95	0.3833297	SAGA	lure	n/a	n/a	n/a	1
386.334	0.333330745	LOT	lure	n/a	n/a	n/a	1
386.667	0.749982694	PENNY	lure	n/a	n/a	n/a	1
387.417	0.716659879	FOOLERY	lure	n/a	n/a	n/a	1
388.134	0.319420888	BOSOM	lure	n/a	n/a	n/a	1
388.453	0.44723518	PEST	lure	n/a	n/a	n/a	1
388.9	0.383324214	AIRWAY	lure	n/a	n/a	n/a	1
389.284	0.583324686	LIMITATION	lure	n/a	n/a	n/a	1
389.867	0.616658508	CUSTODIAN	lure	n/a	n/a	n/a	1
390.484	0.516658256	COMMANDANT	lure	n/a	n/a	n/a	1
391	2.053572621	CONE	long	n/a	n/a	n/a	1
393.054	0.696390465	HELMET	lure	n/a	n/a	n/a	1
393.75	0.666654853	CHIVE	lure	n/a	n/a	n/a	1
394.417	0.666659099	PANCAKE	lure	n/a	n/a	n/a	1
395.084	0.533329514	CARIBOU	lure	n/a	n/a	n/a	1
395.617	0.566653198	DAISY	lure	n/a	n/a	n/a	1
396.184	0.516662723	JURIST	lure	n/a	n/a	n/a	1
396.7	0.666653327	TWINE	lure	n/a	n/a	n/a	1
397.367	0.749989438	DENTISTRY	lure	n/a	n/a	n/a	1
398.117	0.616719404	EXCERPT	lure	n/a	n/a	n/a	1
398.734	0.599979722	KNACK	lure	n/a	n/a	n/a	1
399.334	0.616609672	DENT	short	n/a	n/a	n/a	1
399.95	0.48332826	IMPRINT	lure	n/a	n/a	n/a	1
400.434	0.749988048	POLYESTER	lure	n/a	n/a	n/a	1
401.184	0.583326107	INVERSION	lure	n/a	n/a	n/a	1
401.767	0.666658667	POSTMASTER	lure	n/a	n/a	n/a	1
402.433	0.499991414	SHRINE	lure	n/a	n/a	n/a	1
402.933	0.383327135	SHORTAGE	lure	n/a	n/a	n/a	1
403.317	0.599994106	TERRIER	lure	n/a	n/a	n/a	1
403.917	0.366655337	MEDITATION	lure	n/a	n/a	n/a	1
404.283	0.466663464	KEYPUNCH	lure	n/a	n/a	n/a	1
404.75	0.516658006	ARTISAN	lure	n/a	n/a	n/a	1
405.267	0.349995117	TOGA	lure	n/a	n/a	n/a	1
405.617	0.483326374	MAIDENHOOD	lure	n/a	n/a	n/a	1
406.1	0.719194301	CHANTER	lure	n/a	n/a	n/a	1
406.819	0.49745349	NOMAD	lure	n/a	n/a	n/a	1
407.317	1.016656769	STRAWBERRY	fruit	644	2	2	1
408.333	0.5999863	TURTLENECK	lure	n/a	n/a	n/a	1
408.933	0.549991889	COMMUNISM	lure	n/a	n/a	n/a	1
409.483	0.733322988	RIBBON	lure	n/a	n/a	n/a	1
410.217	0.599995363	HINDRANCE	lure	n/a	n/a	n/a	1
410.817	0.46665932	STICKER	lure	n/a	n/a	n/a	1
411.283	0.69999018	CREMATION	lure	n/a	n/a	n/a	1
411.983	0.683319886	GOO	lure	n/a	n/a	n/a	1
412.667	0.549994139	VARIATION	lure	n/a	n/a	n/a	1
413.217	0.683327408	FLUIDITY	lure	n/a	n/a	n/a	1
413.9	0.485339393	PENn/aT	lure	n/a	n/a	n/a	1
414.385	0.616569021	OVERHAUL	lure	n/a	n/a	n/a	1
415.002	0.466561729	MIDGET	lure	n/a	n/a	n/a	1
415.468	1.014826403	STRAWBERRY	fruit	600	2	2	1
416.483	0.733319883	IVORY	lure	n/a	n/a	n/a	1
417.217	0.699988919	CRITICISM	lure	n/a	n/a	n/a	1
417.917	0.516658934	PROPELLER	lure	n/a	n/a	n/a	1
418.433	0.733364344	BENCH	lure	n/a	n/a	n/a	1
419.167	0.416622636	CLOTH	lure	n/a	n/a	n/a	1
419.583	0.483326654	LYRE	lure	n/a	n/a	n/a	1
420.067	0.716651399	SCALPEL	lure	n/a	n/a	n/a	1
420.783	0.633324189	POUCH	lure	n/a	n/a	n/a	1
421.417	0.699989794	ROSTER	lure	n/a	n/a	n/a	1
422.117	0.666657649	HECK	lure	n/a	n/a	n/a	1
422.783	0.38333166	JASMINE	lure	n/a	n/a	n/a	1
423.167	0.699987462	EPILOGUE	lure	n/a	n/a	n/a	1
423.867	0.616655195	TUNNEL	short	n/a	n/a	n/a	1
424.483	0.349996707	HANDSHAKE	lure	n/a	n/a	n/a	1
424.833	0.71665548	VIEWFINDER	lure	n/a	n/a	n/a	1
425.55	0.570230471	CHICKENPOX	lure	n/a	n/a	n/a	1
426.12	0.413090456	ESCAPADE	lure	n/a	n/a	n/a	1
426.533	0.471034834	PARLOR	lure	n/a	n/a	n/a	1
427.004	0.545621532	VAMPIRE	lure	n/a	n/a	n/a	1
427.55	0.366657213	STEED	lure	n/a	n/a	n/a	1
427.916	0.783324034	AUTOCRACY	lure	n/a	n/a	n/a	1
428.7	0.516657154	AUTOCRAT	lure	n/a	n/a	n/a	1
429.216	0.716654812	FURY	lure	n/a	n/a	n/a	1
429.933	0.683327008	RECEPTION	lure	n/a	n/a	n/a	1
430.616	0.366657944	BEDROCK	lure	n/a	n/a	n/a	1
430.983	0.633324136	PALETTE	lure	n/a	n/a	n/a	1
431.616	0.399995844	COOKY	lure	n/a	n/a	n/a	1
432.016	2.016641142	BUCKLE	long	n/a	n/a	n/a	1
434.033	0.466659511	ERA	lure	n/a	n/a	n/a	1
434.5	0.516658369	HUNTER	lure	n/a	n/a	n/a	1
435.016	0.550053248	HACKSAW	lure	n/a	n/a	n/a	1
435.566	0.54992746	GRAYBEARD	lure	n/a	n/a	n/a	1
436.116	0.383327686	RECOVERY	lure	n/a	n/a	n/a	1
436.5	0.403648343	GUNMEN	lure	n/a	n/a	n/a	1
436.903	0.396342005	MANAGEMENT	lure	n/a	n/a	n/a	1
437.3	0.699988422	IMPUTATION	lure	n/a	n/a	n/a	1
438	0.349999903	TAVERN	lure	n/a	n/a	n/a	1
438.35	0.64998567	BLENDER	lure	n/a	n/a	n/a	1
439	0.683323758	BISCUIT	lure	n/a	n/a	n/a	1
439.683	0.702260198	PIGTAIL	lure	n/a	n/a	n/a	1
440.385	1.064383059	CHERRY	fruit	716	2	2	1
441.45	0.599992766	BURNSIDE	lure	n/a	n/a	n/a	1
442.05	0.499992592	DEBAUCHERY	lure	n/a	n/a	n/a	1
442.55	0.499991487	POSTCARD	lure	n/a	n/a	n/a	1
443.05	0.383328581	PAPERBACK	lure	n/a	n/a	n/a	1
443.433	0.483325731	PUN	lure	n/a	n/a	n/a	1
443.916	0.336095928	EMOTION	lure	n/a	n/a	n/a	1
444.252	0.51389441	PROLOGUE	lure	n/a	n/a	n/a	1
444.766	0.466658201	UPTAKE	lure	n/a	n/a	n/a	1
445.233	0.716659237	HEADLIGHT	lure	n/a	n/a	n/a	1
445.95	0.366658709	ANTHOLOGY	lure	n/a	n/a	n/a	1
446.316	0.666660536	GUARDHOUSE	lure	n/a	n/a	n/a	1
446.983	0.399991545	GLEANER	lure	n/a	n/a	n/a	1
447.383	0.684621182	PROMINENCE	lure	n/a	n/a	n/a	1
448.067	0.332032116	COACHMAN	lure	n/a	n/a	n/a	1
448.4	2.016632061	HAMMER	long	n/a	n/a	n/a	1
450.416	0.566659484	PEANUT	lure	n/a	n/a	n/a	1
450.983	0.486128423	PIZZERIA	lure	n/a	n/a	n/a	1
451.469	0.363864723	RHYTHM	lure	n/a	n/a	n/a	1
451.833	0.416657996	CILIA	lure	n/a	n/a	n/a	1
452.249	0.483326861	REGENT	lure	n/a	n/a	n/a	1
452.733	0.333325474	BREATH	lure	n/a	n/a	n/a	1
453.066	0.516662973	LAWN	lure	n/a	n/a	n/a	1
453.583	0.449992955	HOROSCOPE	lure	n/a	n/a	n/a	1
454.033	0.466660038	IMMATURITY	lure	n/a	n/a	n/a	1
454.499	0.699988165	MEADOW	lure	n/a	n/a	n/a	1
455.199	0.666659557	ORDEAL	lure	n/a	n/a	n/a	1
455.866	0.749991334	AVERSION	lure	n/a	n/a	n/a	1
456.616	0.699988463	HAWKER	lure	n/a	n/a	n/a	1
457.316	0.633322597	SYNERGISM	lure	n/a	n/a	n/a	1
457.949	0.45465578	ANNOTATION	lure	n/a	n/a	n/a	1
458.404	0.49532815	MAT	lure	n/a	n/a	n/a	1
458.899	0.416662543	LETTERMEN	lure	n/a	n/a	n/a	1
459.316	0.349996411	SHEEPDOG	lure	n/a	n/a	n/a	1
459.666	0.649989983	FLAX	lure	n/a	n/a	n/a	1
460.316	0.333330829	BLOCKHEAD	lure	n/a	n/a	n/a	1
460.649	0.666658283	CHINAWARE	lure	n/a	n/a	n/a	1
461.316	0.33332767	BISTRO	lure	n/a	n/a	n/a	1
461.649	0.749991449	FIXTURE	lure	n/a	n/a	n/a	1
462.399	0.499986156	GIST	lure	n/a	n/a	n/a	1
462.899	0.666660885	NYLON	lure	n/a	n/a	n/a	1
463.566	0.499994425	THRUSH	lure	n/a	n/a	n/a	1
464.066	0.384891926	AIRSHIP	lure	n/a	n/a	n/a	1
464.451	NaN	KNOCKDOWN	lure	n/a	n/a	n/a	1