onset	duration	stim	cond	dur	RT	resp	cresp	acc
4.053	0.33333208	HILT	lure	n/a	n/a	n/a	n/a	1
4.386	0.349992904	TUBA	lure	n/a	n/a	n/a	n/a	1
4.736	0.716652135	CEMETERY	lure	n/a	n/a	n/a	n/a	1
5.453	0.333334656	INTRUDER	lure	n/a	n/a	n/a	n/a	1
5.786	0.733316766	DIVINITY	lure	n/a	n/a	n/a	n/a	1
6.519	0.666708664	VENTILATOR	lure	n/a	n/a	n/a	n/a	1
7.186	0.583279969	MISMATCH	lure	n/a	n/a	n/a	n/a	1
7.769	0.616656861	TUNNEL	short	n/a	n/a	n/a	n/a	1
8.386	0.633324865	FORMALITY	lure	n/a	n/a	n/a	n/a	1
9.019	0.516656755	ENTICEMENT	lure	n/a	n/a	n/a	n/a	1
9.536	0.39999059	SLEEPER	lure	n/a	n/a	n/a	n/a	1
9.936	0.670146793	PRESENCE	lure	n/a	n/a	n/a	n/a	1
10.606	0.646507067	EGOTISM	lure	n/a	n/a	n/a	n/a	1
11.253	0.416657787	STY	lure	n/a	n/a	n/a	n/a	1
11.669	0.68337101	GASKET	lure	n/a	n/a	n/a	n/a	1
12.353	0.749938689	INSISTENCE	lure	n/a	n/a	n/a	n/a	1
13.103	0.516663438	RAILROAD	lure	n/a	n/a	n/a	n/a	1
13.619	0.466660809	FRACTION	lure	n/a	n/a	n/a	n/a	1
14.086	0.616655493	CURLER	lure	n/a	n/a	n/a	n/a	1
14.703	0.499994532	EVICTION	lure	n/a	n/a	n/a	n/a	1
15.203	0.383331578	MANNEQUIN	lure	n/a	n/a	n/a	n/a	1
15.586	0.466658246	PROSECUTOR	lure	n/a	n/a	n/a	n/a	1
16.053	0.616656103	SUDS	short	n/a	n/a	n/a	n/a	1
16.669	0.483328416	CUISINE	lure	n/a	n/a	n/a	n/a	1
17.153	0.616659196	GOTHICISM	lure	n/a	n/a	n/a	n/a	1
17.769	0.666654265	RADICALISM	lure	n/a	n/a	n/a	n/a	1
18.436	0.749993307	PANDA	lure	n/a	n/a	n/a	n/a	1
19.186	0.716653679	WINDER	lure	n/a	n/a	n/a	n/a	1
19.903	0.466660178	POPCORN	lure	n/a	n/a	n/a	n/a	1
20.369	0.64998879	GROWTH	lure	n/a	n/a	n/a	n/a	1
21.019	0.599990626	Un/aEST	lure	n/a	n/a	n/a	n/a	1
21.619	0.733322325	COLONY	lure	n/a	n/a	n/a	n/a	1
22.353	0.733323866	CRESCENDO	lure	n/a	n/a	n/a	n/a	1
23.086	0.433326367	CONDENSER	lure	n/a	n/a	n/a	n/a	1
23.519	0.416658475	EVILDOER	lure	n/a	n/a	n/a	n/a	1
23.936	2.016641843	DIRT	long	n/a	n/a	n/a	n/a	1
25.953	0.333325011	CROSSBEAM	lure	n/a	n/a	n/a	n/a	1
26.286	0.616656688	TRADESMAN	lure	n/a	n/a	n/a	n/a	1
26.903	0.583333931	AIRPORT	lure	n/a	n/a	n/a	n/a	1
27.486	0.516654786	CLOSET	lure	n/a	n/a	n/a	n/a	1
28.003	0.399996409	GUST	lure	n/a	n/a	n/a	n/a	1
28.402	0.683319869	LEGUME	lure	n/a	n/a	n/a	n/a	1
29.086	0.483323984	MIDRIFF	lure	n/a	n/a	n/a	n/a	1
29.569	0.616663783	VIGIL	lure	n/a	n/a	n/a	n/a	1
30.186	0.683320605	BYPRODUCT	lure	n/a	n/a	n/a	n/a	1
30.869	0.4666556	BACKBEND	lure	n/a	n/a	n/a	n/a	1
31.336	0.483329733	INCREMENT	lure	n/a	n/a	n/a	n/a	1
31.819	0.549993231	PANSY	lure	n/a	n/a	n/a	n/a	1
32.369	1.016655087	GRAPE	fruit	n/a	n/a	n/a	2	0
33.386	0.566655674	GEEZER	lure	n/a	n/a	n/a	n/a	1
33.952	0.699989879	NEWSCAST	lure	n/a	n/a	n/a	n/a	1
34.652	0.466661729	HASP	lure	n/a	n/a	n/a	n/a	1
35.119	0.333322647	RESPITE	lure	n/a	n/a	n/a	n/a	1
35.452	0.566664283	KEYSTONE	lure	n/a	n/a	n/a	n/a	1
36.019	0.618607522	BRICKWORK	lure	n/a	n/a	n/a	n/a	1
36.638	0.71470766	STEREO	lure	n/a	n/a	n/a	n/a	1
37.352	0.633320502	OVEN	lure	n/a	n/a	n/a	n/a	1
37.986	0.666654537	MARLIN	lure	n/a	n/a	n/a	n/a	1
38.652	0.683326784	WINGER	lure	n/a	n/a	n/a	n/a	1
39.336	0.46665713	PROJECTION	lure	n/a	n/a	n/a	n/a	1
39.802	0.633328258	ICECUBE	lure	n/a	n/a	n/a	n/a	1
40.436	0.533325585	PARTICLE	lure	n/a	n/a	n/a	n/a	1
40.969	1.016651081	PINEAPPLE	fruit	n/a	645	2	2	1
41.986	0.333329229	SAUNA	lure	n/a	n/a	n/a	n/a	1
42.319	0.399990172	NORTHERNER	lure	n/a	n/a	n/a	n/a	1
42.719	0.583330332	COASTLINE	lure	n/a	n/a	n/a	n/a	1
43.302	0.533323053	MISCOUNT	lure	n/a	n/a	n/a	n/a	1
43.836	0.516657791	SAMPLER	lure	n/a	n/a	n/a	n/a	1
44.352	0.73332552	VELOCITY	lure	n/a	n/a	n/a	n/a	1
45.086	0.399990557	APPLICATOR	lure	n/a	n/a	n/a	n/a	1
45.486	0.433328241	CALORIE	lure	n/a	n/a	n/a	n/a	1
45.919	0.683322275	TURTLE	lure	n/a	n/a	n/a	n/a	1
46.602	0.749993424	PLAGIARIST	lure	n/a	n/a	n/a	n/a	1
47.352	0.516659382	DRAY	lure	n/a	n/a	n/a	n/a	1
47.869	0.399994432	CASUALTY	lure	n/a	n/a	n/a	n/a	1
48.269	0.416661595	TERROR	lure	n/a	n/a	n/a	n/a	1
48.686	0.549985859	SIDEWALK	lure	n/a	n/a	n/a	n/a	1
49.236	1.016660308	LIME	fruit	n/a	804	2	2	1
50.252	0.533323251	HUMORIST	lure	n/a	n/a	n/a	n/a	1
50.786	0.666654812	DISTILLERY	lure	n/a	n/a	n/a	n/a	1
51.452	0.450054303	SUMMARY	lure	n/a	n/a	n/a	n/a	1
51.902	0.499935098	AUTHORITY	lure	n/a	n/a	n/a	n/a	1
52.402	0.616658358	BERET	lure	n/a	n/a	n/a	n/a	1
53.019	0.583410676	UNIVERSE	lure	n/a	n/a	n/a	n/a	1
53.602	0.449905579	WHITETAIL	lure	n/a	n/a	n/a	n/a	1
54.052	0.333388945	EMPEROR	lure	n/a	n/a	n/a	n/a	1
54.386	0.46665906	ENZYME	lure	n/a	n/a	n/a	n/a	1
54.852	0.59993051	HORSEBACK	lure	n/a	n/a	n/a	n/a	1
55.452	0.600043202	PUZZLER	lure	n/a	n/a	n/a	n/a	1
56.052	0.683271408	EXAMINER	lure	n/a	n/a	n/a	n/a	1
56.735	0.466660461	HOMELAND	lure	n/a	n/a	n/a	n/a	1
57.202	0.46666454	STAPLER	lure	n/a	n/a	n/a	n/a	1
57.669	2.01663405	HAMMER	long	n/a	n/a	n/a	n/a	1
59.685	0.366663325	REGION	lure	n/a	n/a	n/a	n/a	1
60.052	0.51668453	ATTAINMENT	lure	n/a	n/a	n/a	n/a	1
60.569	0.749965542	REMODEL	lure	n/a	n/a	n/a	n/a	1
61.319	0.76665099	MUSIC	lure	n/a	n/a	n/a	n/a	1
62.085	0.333327006	ACADEMY	lure	n/a	n/a	n/a	n/a	1
62.419	0.649994829	HOUSEMAID	lure	n/a	n/a	n/a	n/a	1
63.069	0.399995221	STOPPAGE	lure	n/a	n/a	n/a	n/a	1
63.469	0.43332788	ORDINATE	lure	n/a	n/a	n/a	n/a	1
63.902	0.516655883	PISTACHIO	lure	n/a	n/a	n/a	n/a	1
64.419	0.45005079	RUG	lure	n/a	n/a	n/a	n/a	1
64.869	0.733262286	THEORIST	lure	n/a	n/a	n/a	n/a	1
65.602	0.733327262	IDOL	lure	n/a	n/a	n/a	n/a	1
66.335	2.016639461	BUBBLE	long	n/a	n/a	n/a	n/a	1
68.352	0.766649403	SALARY	lure	n/a	n/a	n/a	n/a	1
69.119	0.733328227	ARMFUL	lure	n/a	n/a	n/a	n/a	1
69.852	0.399989843	TABOO	lure	n/a	n/a	n/a	n/a	1
70.252	0.516661241	LEAGUE	lure	n/a	n/a	n/a	n/a	1
70.769	0.683322789	ANATOMY	lure	n/a	n/a	n/a	n/a	1
71.452	0.616662137	COUPE	lure	n/a	n/a	n/a	n/a	1
72.069	0.466665323	TINDERBOX	lure	n/a	n/a	n/a	n/a	1
72.535	0.633319564	INABILITY	lure	n/a	n/a	n/a	n/a	1
73.169	0.716652215	HUSBANDRY	lure	n/a	n/a	n/a	n/a	1
73.885	0.499995798	NAMESAKE	lure	n/a	n/a	n/a	n/a	1
74.385	0.466654776	CHAIRWOMAN	lure	n/a	n/a	n/a	n/a	1
74.852	2.016637759	LIGHT	long	n/a	n/a	n/a	n/a	1
76.868	0.34999824	HEARTBURN	lure	n/a	n/a	n/a	n/a	1
77.218	0.749989299	CAROL	lure	n/a	n/a	n/a	n/a	1
77.968	0.733325883	BROKERAGE	lure	n/a	n/a	n/a	n/a	1
78.702	0.699989143	VERNACULAR	lure	n/a	n/a	n/a	n/a	1
79.402	0.666651314	VACANCY	lure	n/a	n/a	n/a	n/a	1
80.068	0.433377476	ADVISEMENT	lure	n/a	n/a	n/a	n/a	1
80.502	0.333282525	RETENTION	lure	n/a	n/a	n/a	n/a	1
80.835	0.416659946	PINNACLE	lure	n/a	n/a	n/a	n/a	1
81.252	0.583326691	NINTENDO	lure	n/a	250	2	n/a	0
81.835	0.566658511	CARRYOVER	lure	n/a	n/a	n/a	n/a	1
82.402	0.716655214	SERPENT	lure	n/a	n/a	n/a	n/a	1
83.118	0.666655444	MATTER	short	n/a	n/a	n/a	n/a	1
83.785	0.487755455	SEDAN	lure	n/a	n/a	n/a	n/a	1
84.273	0.747570972	SLEET	lure	n/a	n/a	n/a	n/a	1
85.02	0.481366577	SHIRT	lure	n/a	n/a	n/a	n/a	1
85.502	0.433278782	REPROACH	lure	n/a	n/a	n/a	n/a	1
85.935	0.416659326	HEADACHE	lure	n/a	n/a	n/a	n/a	1
86.352	0.749984622	PEPPERCORN	lure	n/a	n/a	n/a	n/a	1
87.102	0.449998231	MILITANCY	lure	n/a	n/a	n/a	n/a	1
87.552	0.766658406	SESAME	lure	n/a	n/a	n/a	n/a	1
88.318	0.53573865	LAUNCHER	lure	n/a	n/a	n/a	n/a	1
88.854	0.614241292	VAN	lure	n/a	n/a	n/a	n/a	1
89.468	0.321110449	HEMLINE	lure	n/a	n/a	n/a	n/a	1
89.789	0.46221324	BREADFRUIT	lure	n/a	n/a	n/a	n/a	1
90.252	0.350052693	ROSEBUD	lure	n/a	n/a	n/a	n/a	1
90.602	0.733262538	PATRIARCH	lure	n/a	n/a	n/a	n/a	1
91.335	0.533325218	CABIN	lure	n/a	n/a	n/a	n/a	1
91.868	0.616658916	SANDPAPER	short	n/a	n/a	n/a	n/a	1
92.485	0.333332777	PANORAMA	lure	n/a	n/a	n/a	n/a	1
92.818	0.433323805	COMBO	lure	n/a	n/a	n/a	n/a	1
93.252	0.533329842	ARROW	lure	n/a	n/a	n/a	n/a	1
93.785	0.466657323	INFANTRY	lure	n/a	n/a	n/a	n/a	1
94.252	0.433329188	CAMERA	lure	n/a	n/a	n/a	n/a	1
94.685	0.483327208	DENIM	lure	n/a	n/a	n/a	n/a	1
95.168	0.64998802	MOOD	lure	n/a	n/a	n/a	n/a	1
95.818	0.583322944	HEREDITY	lure	n/a	n/a	n/a	n/a	1
96.402	0.349996909	KINGDOM	lure	n/a	n/a	n/a	n/a	1
96.752	0.549991048	PARISH	lure	n/a	n/a	n/a	n/a	1
97.302	0.549989179	DISTILLER	lure	n/a	n/a	n/a	n/a	1
97.851	0.466662916	ENDEARMENT	lure	n/a	n/a	n/a	n/a	1
98.318	0.666658298	JUDGESHIP	lure	n/a	n/a	n/a	n/a	1
98.985	0.48332735	DIRECTION	lure	n/a	n/a	n/a	n/a	1
99.468	0.449996536	STICKLER	lure	n/a	n/a	n/a	n/a	1
99.918	2.016634872	BRIDGE	long	n/a	n/a	n/a	n/a	1
101.935	0.633377918	GLUCOSE	lure	n/a	n/a	n/a	n/a	1
102.568	0.652939132	IRONSIDE	lure	n/a	n/a	n/a	n/a	1
103.221	0.363658893	PACT	lure	n/a	n/a	n/a	n/a	1
103.585	0.616658046	HYPOCRISY	lure	n/a	n/a	n/a	n/a	1
104.201	0.349994182	MEGAPHONE	lure	n/a	n/a	n/a	n/a	1
104.551	0.600050799	SEASHORE	lure	n/a	n/a	n/a	n/a	1
105.151	0.633321915	SHORTCUT	lure	n/a	n/a	n/a	n/a	1
105.785	0.516600748	MARSHALL	lure	n/a	n/a	n/a	n/a	1
106.301	0.400050756	STREET	lure	n/a	n/a	n/a	n/a	1
106.701	0.733268577	RETHINK	lure	n/a	n/a	n/a	n/a	1
107.435	0.433387464	ALPHABET	lure	n/a	n/a	n/a	n/a	1
107.868	0.616598688	CURTAIN	short	n/a	n/a	n/a	n/a	1
108.485	0.366656529	GRAVITY	lure	n/a	n/a	n/a	n/a	1
108.851	0.483374151	LETTERHEAD	lure	n/a	n/a	n/a	n/a	1
109.335	0.40261242	ONSLAUGHT	lure	n/a	n/a	n/a	n/a	1
109.737	0.580664359	INSTANCE	lure	n/a	n/a	n/a	n/a	1
110.318	0.683375188	EMPLOYER	lure	n/a	n/a	n/a	n/a	1
111.001	0.649996371	TRAINER	lure	n/a	n/a	n/a	n/a	1
111.651	0.583264478	PISTON	lure	n/a	n/a	n/a	n/a	1
112.235	0.466660311	PACIFISM	lure	n/a	n/a	n/a	n/a	1
112.701	0.449988892	WHIRLPOOL	lure	n/a	n/a	n/a	n/a	1
113.151	0.433390684	TAXPAYER	lure	n/a	n/a	n/a	n/a	1
113.585	0.416602928	STATIONERY	lure	n/a	n/a	n/a	n/a	1
114.001	0.499991761	TRIBUTARY	lure	n/a	n/a	n/a	n/a	1
114.501	0.450052977	WASTEWATER	lure	n/a	n/a	n/a	n/a	1
114.951	0.616651475	KETCHUP	lure	n/a	n/a	n/a	n/a	1
115.568	0.583273711	DESSERT	lure	n/a	n/a	n/a	n/a	1
116.151	0.649989306	MATCH	short	n/a	n/a	n/a	n/a	1
116.801	0.35004205	MILLIGRAM	lure	n/a	n/a	n/a	n/a	1
117.151	0.366675605	COMMISSARY	lure	n/a	n/a	n/a	n/a	1
117.518	0.533264384	BIGAMY	lure	n/a	n/a	n/a	n/a	1
118.051	0.466660403	DEVICE	lure	n/a	n/a	n/a	n/a	1
118.518	0.416661419	HIGHLAND	lure	n/a	n/a	n/a	n/a	1
118.935	0.733324768	CALFSKIN	lure	n/a	n/a	n/a	n/a	1
119.668	0.600041359	TENURE	lure	n/a	n/a	n/a	n/a	1
120.268	0.633330004	CUPCAKE	lure	n/a	n/a	n/a	n/a	1
120.901	0.616600383	MOTORCAR	lure	n/a	n/a	n/a	n/a	1
121.518	0.566656267	PIGSKIN	lure	n/a	n/a	n/a	n/a	1
122.084	0.599991681	OPPONENT	lure	n/a	n/a	n/a	n/a	1
122.684	0.616659703	VALENCE	lure	n/a	n/a	n/a	n/a	1
123.301	0.583381676	CARNIVAL	lure	n/a	n/a	n/a	n/a	1
123.885	0.716599069	SCIENCE	lure	n/a	n/a	n/a	n/a	1
124.601	2.016639093	ROPE	long	n/a	n/a	n/a	n/a	1
126.618	0.533382859	SHEATH	lure	n/a	n/a	n/a	n/a	1
127.151	0.716597784	DEFLECTION	lure	n/a	n/a	n/a	n/a	1
127.868	0.566657353	FIREBIRD	lure	n/a	n/a	n/a	n/a	1
128.434	0.683383511	GROWER	lure	n/a	n/a	n/a	n/a	1
129.118	0.799929142	MINUTE	lure	n/a	n/a	n/a	n/a	1
129.918	0.519017242	AMORALITY	lure	n/a	n/a	n/a	n/a	1
130.437	0.364304547	GAUNTLET	lure	n/a	n/a	n/a	n/a	1
130.801	0.534600348	TIRADE	lure	n/a	n/a	n/a	n/a	1
131.336	0.382055401	RELIANCE	lure	n/a	n/a	n/a	n/a	1
131.718	0.449991321	PERIWINKLE	lure	n/a	n/a	n/a	n/a	1
132.168	0.583323255	COMMANDER	lure	n/a	n/a	n/a	n/a	1
132.751	2.018524518	BUCKLE	long	n/a	n/a	n/a	n/a	1
134.77	0.548165153	METAL	lure	n/a	n/a	n/a	n/a	1
135.318	0.583324819	FOXHOLE	lure	n/a	n/a	n/a	n/a	1
135.901	0.633264798	REMORSE	lure	n/a	n/a	n/a	n/a	1
136.534	0.499993414	CELLAR	lure	n/a	n/a	n/a	n/a	1
137.034	0.533325567	LUNCHEON	lure	n/a	n/a	n/a	n/a	1
137.568	0.733321144	COMPOSITOR	lure	n/a	n/a	n/a	n/a	1
138.301	0.486069651	GUNSMITH	lure	n/a	n/a	n/a	n/a	1
138.787	0.530585451	PERSUASION	lure	n/a	n/a	n/a	n/a	1
139.318	0.466659584	SORCERER	lure	n/a	n/a	n/a	n/a	1
139.784	0.599988456	SKULLCAP	lure	n/a	n/a	n/a	n/a	1
140.384	0.566659893	ILLEGALITY	lure	n/a	n/a	n/a	n/a	1
140.951	0.349994481	PLACEBO	lure	n/a	n/a	n/a	n/a	1
141.301	1.049987042	CRANBERRY	fruit	n/a	679	2	2	1
142.351	0.59999157	PHOSPHATE	lure	n/a	n/a	n/a	n/a	1
142.951	0.399993898	PULLEY	lure	n/a	n/a	n/a	n/a	1
143.351	0.666655331	OGRE	lure	n/a	n/a	n/a	n/a	1
144.018	0.416663023	PRONOUN	lure	n/a	n/a	n/a	n/a	1
144.434	0.716656588	CLASSICIST	lure	n/a	n/a	n/a	n/a	1
145.151	0.533323389	NAMEPLATE	lure	n/a	n/a	n/a	n/a	1
145.684	0.483328378	SUSPENSE	lure	n/a	n/a	n/a	n/a	1
146.167	0.633324023	DISORDER	lure	n/a	n/a	n/a	n/a	1
146.801	0.733320938	CATALOG	lure	n/a	n/a	n/a	n/a	1
147.534	0.549992732	ORCHID	lure	n/a	n/a	n/a	n/a	1
148.084	0.41665959	GUNNER	lure	n/a	n/a	n/a	n/a	1
148.501	0.416656491	CONTEXT	lure	n/a	n/a	n/a	n/a	1
148.917	0.449999659	MEDIUM	lure	n/a	n/a	n/a	n/a	1
149.367	0.483325057	MEDICINE	lure	n/a	n/a	n/a	n/a	1
149.851	0.616659529	DENT	short	n/a	n/a	n/a	n/a	1
150.467	0.516657441	BIGAMIST	lure	n/a	n/a	n/a	n/a	1
150.984	0.54999197	GUITARIST	lure	n/a	n/a	n/a	n/a	1
151.534	0.449993629	CROWBAR	lure	n/a	n/a	n/a	n/a	1
151.984	0.48332844	GODSON	lure	n/a	n/a	n/a	n/a	1
152.467	0.566658107	UPKEEP	lure	n/a	n/a	n/a	n/a	1
153.034	0.53332463	MICROWAVE	lure	n/a	n/a	n/a	n/a	1
153.567	0.449993518	PIECEWORK	lure	n/a	n/a	n/a	n/a	1
154.017	0.649990798	EYELET	lure	n/a	n/a	n/a	n/a	1
154.667	0.349993977	DRIVER	lure	n/a	n/a	n/a	n/a	1
155.017	0.366663756	TON	lure	n/a	n/a	n/a	n/a	1
155.384	0.516658208	COWARD	lure	n/a	n/a	n/a	n/a	1
155.901	0.633325676	BRIAR	lure	n/a	n/a	n/a	n/a	1
156.534	0.549990373	NUGGET	lure	n/a	n/a	n/a	n/a	1
157.084	0.333328374	CANDOR	lure	n/a	n/a	n/a	n/a	1
157.417	0.433328423	DAD	lure	n/a	n/a	n/a	n/a	1
157.851	0.618052923	SCREEN	short	n/a	n/a	n/a	n/a	1
158.469	0.565262031	CHURCHMEN	lure	n/a	n/a	n/a	n/a	1
159.034	0.449993456	TRAILER	lure	n/a	n/a	n/a	n/a	1
159.484	0.733323762	ALTERNATOR	lure	n/a	n/a	n/a	n/a	1
160.217	0.716661934	NIGHT	lure	n/a	n/a	n/a	n/a	1
160.934	0.699983697	DEITY	lure	n/a	n/a	n/a	n/a	1
161.634	0.451676911	DISABILITY	lure	n/a	n/a	n/a	n/a	1
162.086	0.568566341	EQUALITY	lure	n/a	n/a	n/a	n/a	1
162.654	0.62973472	PERCENT	lure	n/a	n/a	n/a	n/a	1
163.284	0.449991331	TURNER	lure	n/a	n/a	n/a	n/a	1
163.734	0.449997611	LOCKSMITH	lure	n/a	n/a	n/a	n/a	1
164.184	0.633318481	PERMANENCE	lure	n/a	n/a	n/a	n/a	1
164.817	0.333334522	VAMP	lure	n/a	n/a	n/a	n/a	1
165.151	0.616656763	SCORECARD	lure	n/a	n/a	n/a	n/a	1
165.767	0.466654052	ELASTICITY	lure	n/a	n/a	n/a	n/a	1
166.234	2.016640541	CONE	long	n/a	n/a	n/a	n/a	1
168.25	0.349998378	IMMERSION	lure	n/a	n/a	n/a	n/a	1
168.6	0.449990178	BLASPHEMY	lure	n/a	n/a	n/a	n/a	1
169.05	0.633327567	TELLER	lure	n/a	n/a	n/a	n/a	1
169.684	0.749986128	SECTOR	lure	n/a	n/a	n/a	n/a	1
170.434	0.349994724	EXCAVATION	lure	n/a	n/a	n/a	n/a	1
170.784	0.749989089	SCOOTER	lure	n/a	n/a	n/a	n/a	1
171.534	0.533321033	SPECTRUM	lure	n/a	n/a	n/a	n/a	1
172.067	0.333333879	COFFEE	lure	n/a	n/a	n/a	n/a	1
172.4	0.466661093	PATIENCE	lure	n/a	n/a	n/a	n/a	1
172.867	0.700033382	TALE	lure	n/a	n/a	n/a	n/a	1
173.567	0.333286108	BORROWER	lure	n/a	n/a	n/a	n/a	1
173.9	0.533384329	BOY	lure	n/a	n/a	n/a	n/a	1
174.434	1.017442545	BAn/aA	fruit	n/a	676	2	2	1
175.451	0.499139523	PATHFINDER	lure	n/a	n/a	n/a	n/a	1
175.95	0.568212202	RITZ	lure	n/a	n/a	n/a	n/a	1
176.519	0.731770323	RECORDER	lure	n/a	n/a	n/a	n/a	1
177.25	0.466661769	REGULATOR	lure	n/a	n/a	n/a	n/a	1
177.717	0.649991238	ANTIPATHY	lure	n/a	n/a	n/a	n/a	1
178.367	0.716655262	CAUSALITY	lure	n/a	n/a	n/a	n/a	1
179.084	0.566652635	OPTICIAN	lure	n/a	n/a	n/a	n/a	1
179.65	0.533328729	ENMITY	lure	n/a	n/a	n/a	n/a	1
180.184	0.349994642	GROUNDER	lure	n/a	n/a	n/a	n/a	1
180.534	0.683321557	LOUGH	lure	n/a	n/a	n/a	n/a	1
181.217	0.783389371	FOLKLORE	lure	n/a	n/a	n/a	n/a	1
182	0.499985255	PROPENSITY	lure	n/a	n/a	n/a	n/a	1
182.5	0.616603532	VAULT	short	n/a	n/a	n/a	n/a	1
183.117	0.349997188	CLOUDBURST	lure	n/a	n/a	n/a	n/a	1
183.467	0.416660677	GASP	lure	n/a	n/a	n/a	n/a	1
183.884	0.666653489	SEDATIVE	lure	n/a	n/a	n/a	n/a	1
184.55	0.699993986	BELIEVER	lure	n/a	n/a	n/a	n/a	1
185.25	0.583317233	BARRACK	lure	n/a	n/a	n/a	n/a	1
185.834	0.733328813	UNDERDOG	lure	n/a	n/a	n/a	n/a	1
186.567	0.666656656	ROADSIDE	lure	n/a	n/a	n/a	n/a	1
187.234	0.783322489	VIEWPOINT	lure	n/a	n/a	n/a	n/a	1
188.017	0.68332207	VERSE	lure	n/a	n/a	n/a	n/a	1
188.7	0.433321621	ERRAND	lure	n/a	n/a	n/a	n/a	1
189.134	0.354534562	CHAIRMEN	lure	n/a	n/a	n/a	n/a	1
189.488	0.412125452	HOOF	lure	n/a	n/a	n/a	n/a	1
189.9	0.599993825	STRAGGLER	lure	n/a	n/a	n/a	n/a	1
190.5	0.416662389	EXPIRATION	lure	n/a	n/a	n/a	n/a	1
190.917	2.017121317	TRUCK	long	n/a	n/a	n/a	n/a	1
192.934	0.699506792	SHIPMENT	lure	n/a	n/a	n/a	n/a	1
193.633	0.733321001	CINNAMON	lure	n/a	n/a	n/a	n/a	1
194.367	0.483328282	PROTEIN	lure	n/a	n/a	n/a	n/a	1
194.85	0.366661087	INFORMER	lure	n/a	n/a	n/a	n/a	1
195.217	0.516654124	PLOY	lure	n/a	n/a	n/a	n/a	1
195.733	0.34999796	TOMBOY	lure	n/a	n/a	n/a	n/a	1
196.083	0.449995989	INQUIRER	lure	n/a	n/a	n/a	n/a	1
196.533	0.349993556	PANACEA	lure	n/a	n/a	n/a	n/a	1
196.883	0.53332234	SUBHEADING	lure	n/a	n/a	n/a	n/a	1
197.417	0.766653919	TOTALITY	lure	n/a	n/a	n/a	n/a	1
198.183	0.666661456	LETDOWN	lure	n/a	n/a	n/a	n/a	1
198.85	0.499994235	GOALIE	lure	n/a	n/a	n/a	n/a	1
199.35	1.06664666	GRAPE	fruit	n/a	n/a	n/a	2	0
200.417	0.566658017	SHORTSTOP	lure	n/a	378	2	n/a	0
200.983	0.483328024	MOCCASIN	lure	n/a	n/a	n/a	n/a	1
201.467	0.58332638	NOTATION	lure	n/a	n/a	n/a	n/a	1
202.05	0.583325463	HARPER	lure	n/a	n/a	n/a	n/a	1
202.633	0.749987778	WHISTLE	lure	n/a	n/a	n/a	n/a	1
203.383	0.383329127	WORKTABLE	lure	n/a	n/a	n/a	n/a	1
203.767	0.716653097	MANNER	lure	n/a	n/a	n/a	n/a	1
204.483	0.633377058	REPARATION	lure	n/a	n/a	n/a	n/a	1
205.117	0.683273478	MARINER	lure	n/a	n/a	n/a	n/a	1
205.8	0.683386192	TRINKET	lure	n/a	n/a	n/a	n/a	1
206.483	0.683263013	DAGGER	lure	n/a	n/a	n/a	n/a	1
207.167	0.483963947	HOGWASH	lure	n/a	n/a	n/a	n/a	1
207.651	2.016104326	TERRACE	long	n/a	n/a	n/a	n/a	1
209.667	0.749970676	OPTIMALITY	lure	n/a	n/a	n/a	n/a	1
210.417	0.39990758	CASSETTE	lure	n/a	n/a	n/a	n/a	1
210.817	0.466658388	PUPPY	lure	n/a	n/a	n/a	n/a	1
211.283	0.516660096	WRIGHT	lure	n/a	n/a	n/a	n/a	1
211.8	0.466661225	BEDSPREAD	lure	n/a	n/a	n/a	n/a	1
212.267	0.4499873	CORNFLOUR	lure	n/a	n/a	n/a	n/a	1
212.717	0.550056424	SUNSET	lure	n/a	n/a	n/a	n/a	1
213.267	0.333376872	SHOWDOWN	lure	n/a	n/a	n/a	n/a	1
213.6	0.484298052	FROSTBITE	lure	n/a	n/a	n/a	n/a	1
214.084	0.582245728	POLYGAMY	lure	n/a	n/a	n/a	n/a	1
214.666	0.433380131	PIE	lure	n/a	n/a	n/a	n/a	1
215.1	0.583307766	LIKELIHOOD	lure	n/a	n/a	n/a	n/a	1
215.683	0.616618134	PYRAMID	short	n/a	n/a	n/a	n/a	1
216.3	0.433390276	DIVERGENCE	lure	n/a	n/a	n/a	n/a	1
216.733	0.749929803	KINFOLK	lure	n/a	n/a	n/a	n/a	1
217.483	0.433382466	FOOTNOTE	lure	n/a	n/a	n/a	n/a	1
217.917	0.549935238	DEPLOYMENT	lure	n/a	n/a	n/a	n/a	1
218.466	0.500052302	CYNIC	lure	n/a	n/a	n/a	n/a	1
218.966	0.366684995	CORNFIELD	lure	n/a	n/a	n/a	n/a	1
219.333	0.733297765	WORKSHEET	lure	n/a	n/a	n/a	n/a	1
220.066	0.752235987	ROUNDHOUSE	lure	n/a	n/a	n/a	n/a	1
220.819	0.514354346	MANIFESTO	lure	n/a	n/a	n/a	n/a	1
221.333	0.416723586	PHENOMENON	lure	n/a	n/a	n/a	n/a	1
221.75	0.566595194	DOORMEN	lure	n/a	n/a	n/a	n/a	1
222.316	0.466664382	MAILER	lure	n/a	n/a	n/a	n/a	1
222.783	0.399990725	METHYL	lure	n/a	n/a	n/a	n/a	1
223.183	0.799989659	KARATE	lure	n/a	n/a	n/a	n/a	1
223.983	0.566663055	ELECTOR	lure	n/a	n/a	n/a	n/a	1
224.55	0.4833235	DOGWOOD	lure	n/a	n/a	n/a	n/a	1
225.033	0.566659897	NECTAR	lure	n/a	n/a	n/a	n/a	1
225.6	0.5833202	PUMA	lure	n/a	n/a	n/a	n/a	1
226.183	0.433327847	HISTORIAN	lure	n/a	n/a	n/a	n/a	1
226.616	n/a	CREATOR	lure	n/a	n/a	n/a	n/a	1
238.017	0.699583325	TRAJECTORY	lure	n/a	n/a	n/a	n/a	1
238.716	0.733321861	POPPER	lure	n/a	n/a	n/a	n/a	1
239.449	0.599988001	COUSIN	lure	n/a	n/a	n/a	n/a	1
240.049	0.566659689	BYWAY	lure	n/a	n/a	n/a	n/a	1
240.616	0.667940667	BROADCLOTH	lure	n/a	n/a	n/a	n/a	1
241.284	0.382045623	GOLF	lure	n/a	n/a	n/a	n/a	1
241.666	2.01663641	BUBBLE	long	n/a	n/a	n/a	n/a	1
243.683	0.383324237	ENTRANCE	lure	n/a	n/a	n/a	n/a	1
244.066	0.333390376	EYETEETH	lure	n/a	n/a	n/a	n/a	1
244.399	0.783262178	SOLUTION	lure	n/a	n/a	n/a	n/a	1
245.183	0.733385174	AEROPLANE	lure	n/a	n/a	n/a	n/a	1
245.916	0.450002428	CONGRUITY	lure	n/a	n/a	n/a	n/a	1
246.366	0.599975374	COALFIELD	lure	n/a	n/a	n/a	n/a	1
246.966	0.649937926	HEADSET	lure	n/a	n/a	n/a	n/a	1
247.616	0.753284598	AIRFLOW	lure	n/a	n/a	n/a	n/a	1
248.369	0.530029022	AMBIGUITY	lure	n/a	n/a	n/a	n/a	1
248.899	0.466659825	COMEDY	lure	n/a	n/a	n/a	n/a	1
249.366	0.766656321	DOER	lure	n/a	n/a	n/a	n/a	1
250.133	1.016653475	MELON	fruit	n/a	850	2	2	1
251.149	0.60005241	CONSPIRACY	lure	n/a	n/a	n/a	n/a	1
251.749	0.616592686	ASH	lure	n/a	n/a	n/a	n/a	1
252.366	0.73332668	BASSET	lure	n/a	n/a	n/a	n/a	1
253.099	0.599989628	SYMPATHY	lure	n/a	n/a	n/a	n/a	1
253.699	0.383327801	PATH	lure	n/a	n/a	n/a	n/a	1
254.083	0.44999538	MAIDEN	lure	n/a	n/a	n/a	n/a	1
254.533	0.383328152	REVISION	lure	n/a	n/a	n/a	n/a	1
254.916	0.683319138	LACROSSE	lure	n/a	n/a	n/a	n/a	1
255.599	0.533328098	SAILOR	lure	n/a	n/a	n/a	n/a	1
256.133	0.383329901	GLADE	lure	n/a	n/a	n/a	n/a	1
256.516	0.599990107	ORGANIZER	lure	n/a	n/a	n/a	n/a	1
257.116	0.466658307	VASE	lure	n/a	n/a	n/a	n/a	1
257.583	0.333327671	INTERLINK	lure	n/a	n/a	n/a	n/a	1
257.916	0.633325335	CITADEL	lure	n/a	n/a	n/a	n/a	1
258.549	1.016654516	NECTARINE	fruit	n/a	672	2	2	1
259.566	0.383325901	DEVELOPER	lure	n/a	n/a	n/a	n/a	1
259.949	0.483386408	CONGRUENCE	lure	n/a	n/a	n/a	n/a	1
260.433	0.533265812	WEATHERMAN	lure	n/a	n/a	n/a	n/a	1
260.966	0.583327649	HUMILITY	lure	n/a	n/a	n/a	n/a	1
261.549	0.753407731	TERRACOTTA	lure	n/a	n/a	n/a	n/a	1
262.303	0.429904452	PROBATION	lure	n/a	n/a	n/a	n/a	1
262.732	0.366663674	ADJUNCT	lure	n/a	n/a	n/a	n/a	1
263.099	0.633322702	FELLOWSHIP	lure	n/a	n/a	n/a	n/a	1
263.732	0.683326659	PENITENCE	lure	n/a	n/a	n/a	n/a	1
264.416	0.649990592	RACCOON	lure	n/a	n/a	n/a	n/a	1
265.066	0.383322604	BRICK	lure	n/a	n/a	n/a	n/a	1
265.449	0.39999454	MOGUL	lure	n/a	n/a	n/a	n/a	1
265.849	0.650945022	NOON	lure	n/a	n/a	n/a	n/a	1
266.5	0.69904256	MONOGRAM	lure	n/a	n/a	n/a	n/a	1
267.199	0.616656693	VAULT	short	n/a	n/a	n/a	n/a	1
267.816	0.4999904	CHECKOUT	lure	n/a	n/a	n/a	n/a	1
268.316	0.533324167	BILLBOARD	lure	n/a	n/a	n/a	n/a	1
268.849	0.503394446	LAMP	lure	n/a	n/a	n/a	n/a	1
269.352	0.546588328	NIGHTLIFE	lure	n/a	n/a	n/a	n/a	1
269.899	0.58333002	CRITTER	lure	n/a	n/a	n/a	n/a	1
270.482	0.449993704	APPROVAL	lure	n/a	n/a	n/a	n/a	1
270.932	0.48332754	RIFLEMEN	lure	n/a	n/a	n/a	n/a	1
271.416	0.366660122	LATECOMER	lure	n/a	n/a	n/a	n/a	1
271.782	0.649986742	LINT	lure	n/a	n/a	n/a	n/a	1
272.432	0.433331206	MATRIMONY	lure	n/a	n/a	n/a	n/a	1
272.866	0.516656036	LONGITUDE	lure	n/a	n/a	n/a	n/a	1
273.382	0.56666289	TUNDRA	lure	n/a	n/a	n/a	n/a	1
273.949	0.749983409	TECH	lure	n/a	n/a	n/a	n/a	1
274.699	0.633323544	ARCHDUKE	lure	n/a	n/a	n/a	n/a	1
275.332	0.449998108	CRAFTER	lure	n/a	n/a	n/a	n/a	1
275.782	0.616661314	MATCH	short	n/a	n/a	n/a	n/a	1
276.399	0.49998739	QUARTZ	lure	n/a	n/a	n/a	n/a	1
276.899	0.583328754	WHARF	lure	n/a	n/a	n/a	n/a	1
277.482	0.383327297	APOLOGIST	lure	n/a	n/a	n/a	n/a	1
277.866	0.33332914	FAIRYTALE	lure	n/a	n/a	n/a	n/a	1
278.199	0.649987625	TROLLEY	lure	n/a	n/a	n/a	n/a	1
278.849	0.400047173	GUNMAN	lure	n/a	n/a	n/a	n/a	1
279.249	0.616658895	MUSICIAN	lure	n/a	n/a	n/a	n/a	1
279.866	0.599989791	DOORKNOB	lure	n/a	n/a	n/a	n/a	1
280.466	0.316610997	MOUTH	lure	n/a	n/a	n/a	n/a	1
280.782	0.649991957	APRON	lure	n/a	n/a	n/a	n/a	1
281.432	0.350054922	PALACE	lure	n/a	n/a	n/a	n/a	1
281.782	0.516596821	SHERIFF	lure	n/a	n/a	n/a	n/a	1
282.299	0.583326756	CRITIC	lure	n/a	n/a	n/a	n/a	1
282.882	0.599989192	LADYSHIP	lure	n/a	n/a	n/a	n/a	1
283.482	0.416721336	EXTROVERT	lure	n/a	n/a	n/a	n/a	1
283.899	0.616651094	PYRAMID	short	n/a	n/a	n/a	n/a	1
284.516	0.69993682	VALENTINE	lure	n/a	n/a	n/a	n/a	1
285.215	0.700047875	STOWAWAY	lure	n/a	n/a	n/a	n/a	1
285.916	0.466600547	RENOVATION	lure	n/a	n/a	n/a	n/a	1
286.382	0.649988961	KNIGHTHOOD	lure	n/a	n/a	n/a	n/a	1
287.032	0.716662501	MORPHOLOGY	lure	n/a	n/a	n/a	n/a	1
287.749	0.599985242	ABBEY	lure	n/a	n/a	n/a	n/a	1
288.349	0.399994254	POD	lure	n/a	n/a	n/a	n/a	1
288.749	0.583330608	SONGBOOK	lure	n/a	n/a	n/a	n/a	1
289.332	0.649990058	LUXURY	lure	n/a	n/a	n/a	n/a	1
289.982	0.749985757	MUDSLINGER	lure	n/a	n/a	n/a	n/a	1
290.732	0.449995457	RAG	lure	n/a	n/a	n/a	n/a	1
291.182	0.516655934	RANCHER	lure	n/a	n/a	n/a	n/a	1
291.699	0.683329796	TROPHY	lure	n/a	n/a	n/a	n/a	1
292.382	2.016635932	BRIDGE	long	n/a	n/a	n/a	n/a	1
294.399	0.666653038	VIAL	lure	n/a	n/a	n/a	n/a	1
295.065	0.55006846	DOGMA	lure	n/a	n/a	n/a	n/a	1
295.615	0.333257223	DUSTPAN	lure	n/a	n/a	n/a	n/a	1
295.949	0.633324375	DELETION	lure	n/a	n/a	n/a	n/a	1
296.582	0.70410048	CAREERISM	lure	n/a	n/a	n/a	n/a	1
297.286	0.562546528	FRINGE	lure	n/a	n/a	n/a	n/a	1
297.849	0.333389437	GIVER	lure	n/a	n/a	n/a	n/a	1
298.182	0.36659667	SELLER	lure	n/a	n/a	n/a	n/a	1
298.549	0.333386531	ARCHERY	lure	n/a	n/a	n/a	n/a	1
298.882	0.366608847	ENGRAVER	lure	n/a	n/a	n/a	n/a	1
299.249	0.483322889	METRO	lure	n/a	n/a	n/a	n/a	1
299.732	0.566660661	PENTAMETER	lure	n/a	n/a	n/a	n/a	1
300.299	2.016688687	DIRT	long	n/a	n/a	n/a	n/a	1
302.315	0.466609282	LATTICE	lure	n/a	n/a	n/a	n/a	1
302.782	0.583369126	CHAMPAIGN	lure	n/a	n/a	n/a	n/a	1
303.365	0.733281932	BALM	lure	n/a	n/a	n/a	n/a	1
304.099	0.716652633	CLICHE	lure	n/a	n/a	n/a	n/a	1
304.815	0.733320789	URGENCY	lure	n/a	n/a	n/a	n/a	1
305.549	0.483328788	MAST	lure	n/a	n/a	n/a	n/a	1
306.032	0.516658609	GRIMACE	lure	n/a	n/a	n/a	n/a	1
306.549	0.602242002	CRUELTY	lure	n/a	n/a	n/a	n/a	1
307.151	0.71440644	PLATFORM	lure	n/a	n/a	n/a	n/a	1
307.865	0.416658098	BIOLOGIST	lure	n/a	n/a	n/a	n/a	1
308.282	1.016710051	GRAPEFRUIT	fruit	n/a	708	2	2	1
309.299	0.400004461	APTITUDE	lure	n/a	n/a	n/a	n/a	1
309.699	0.433257569	CORTEX	lure	n/a	n/a	n/a	n/a	1
310.132	0.366665621	FORERUNNER	lure	n/a	n/a	n/a	n/a	1
310.498	0.366659696	NECESSITY	lure	n/a	n/a	n/a	n/a	1
310.865	0.53332793	MEDIA	lure	n/a	n/a	n/a	n/a	1
311.398	0.366661817	OWL	lure	n/a	n/a	n/a	n/a	1
311.765	0.333322808	FRAGMENT	lure	n/a	n/a	n/a	n/a	1
312.098	0.383331193	DOCTORATE	lure	n/a	n/a	n/a	n/a	1
312.482	0.766657143	DRIFTER	lure	n/a	n/a	n/a	n/a	1
313.248	0.366661646	LIGHTBULB	lure	n/a	n/a	n/a	n/a	1
313.615	0.449990295	DOGHOUSE	lure	n/a	n/a	n/a	n/a	1
314.065	0.333331629	ROADBED	lure	n/a	n/a	n/a	n/a	1
314.398	0.46665897	HANDBRAKE	lure	n/a	n/a	n/a	n/a	1
314.865	0.716654075	DOGFIGHT	lure	n/a	n/a	n/a	n/a	1
315.582	0.416663466	OFFENSE	lure	n/a	n/a	n/a	n/a	1
315.998	0.333325374	AMENDMENT	lure	n/a	n/a	n/a	n/a	1
316.332	0.616663369	SANDPAPER	short	n/a	n/a	n/a	n/a	1
316.948	0.716652556	NUTCRACKER	lure	n/a	n/a	n/a	n/a	1
317.665	0.633325769	CIRCUITRY	lure	n/a	n/a	n/a	n/a	1
318.298	0.616659584	TERRAIN	lure	n/a	n/a	n/a	n/a	1
318.915	0.533438157	OCCUPANT	lure	n/a	n/a	n/a	n/a	1
319.448	0.399882567	MODIFIER	lure	n/a	n/a	n/a	n/a	1
319.848	0.517229509	CANNON	lure	n/a	n/a	n/a	n/a	1
320.366	0.732749704	DICHOTOMY	lure	n/a	n/a	n/a	n/a	1
321.098	0.449996839	INQUISITOR	lure	n/a	n/a	n/a	n/a	1
321.548	0.616660475	DOWNING	lure	n/a	n/a	n/a	n/a	1
322.165	0.716647885	BOAR	lure	n/a	n/a	n/a	n/a	1
322.882	0.466661962	HOMICIDE	lure	n/a	n/a	n/a	n/a	1
323.348	0.433328009	FISHERMAN	lure	n/a	n/a	n/a	n/a	1
323.782	0.499991607	UPSURGE	lure	n/a	n/a	n/a	n/a	1
324.282	0.566658193	TEMPLE	lure	n/a	n/a	n/a	n/a	1
324.848	0.616697202	CURTAIN	short	n/a	n/a	n/a	n/a	1
325.465	0.599954115	AIRFIELD	lure	n/a	n/a	n/a	n/a	1
326.065	0.466662046	CROPPER	lure	n/a	n/a	n/a	n/a	1
326.532	0.399992576	EIGHTIETH	lure	n/a	n/a	n/a	n/a	1
326.932	0.48524824	ORCHARD	lure	n/a	n/a	n/a	n/a	1
327.417	0.331409658	DOLPHIN	lure	n/a	n/a	n/a	n/a	1
327.748	0.699992568	HILARITY	lure	n/a	n/a	n/a	n/a	1
328.448	0.36665943	CRYBABY	lure	n/a	n/a	n/a	n/a	1
328.815	0.616655571	ROOFTOP	lure	n/a	n/a	n/a	n/a	1
329.432	0.399991832	OBVERSE	lure	n/a	n/a	n/a	n/a	1
329.832	0.39999767	HEADREST	lure	n/a	n/a	n/a	n/a	1
330.232	0.683322155	YEAST	lure	n/a	n/a	n/a	n/a	1
330.915	0.733325731	POVERTY	lure	n/a	n/a	n/a	n/a	1
331.648	0.516654044	MEMO	lure	n/a	n/a	n/a	n/a	1
332.165	0.616656821	DETENTION	lure	n/a	n/a	n/a	n/a	1
332.781	0.683324095	GENERATOR	lure	n/a	n/a	n/a	n/a	1
333.465	2.017270907	ROPE	long	n/a	n/a	n/a	n/a	1
335.482	0.53269284	BOYHOOD	lure	n/a	n/a	n/a	n/a	1
336.015	0.549989148	CHURCHYARD	lure	n/a	n/a	n/a	n/a	1
336.565	0.466662903	SAVANNA	lure	n/a	n/a	n/a	n/a	1
337.031	0.566656121	CORNCOB	lure	n/a	n/a	n/a	n/a	1
337.598	0.583328564	MEMBRANE	lure	n/a	n/a	n/a	n/a	1
338.181	0.399990152	WATERSHED	lure	n/a	n/a	n/a	n/a	1
338.581	0.583334317	CONTEST	lure	n/a	n/a	n/a	n/a	1
339.165	0.549992015	ASSORTMENT	lure	n/a	n/a	n/a	n/a	1
339.715	0.649990231	GELATIN	lure	n/a	n/a	n/a	n/a	1
340.365	0.583321265	FLYER	lure	n/a	n/a	n/a	n/a	1
340.948	0.633319484	BRONCO	lure	n/a	n/a	n/a	n/a	1
341.581	0.516660563	BLOWPIPE	lure	n/a	n/a	n/a	n/a	1
342.098	0.649995908	SCREEN	short	n/a	n/a	n/a	n/a	1
342.748	0.433320426	PROFESSION	lure	n/a	n/a	n/a	n/a	1
343.181	0.649993428	REDEMPTION	lure	n/a	n/a	n/a	n/a	1
343.831	0.666697196	COMRADE	lure	n/a	n/a	n/a	n/a	1
344.498	0.349960531	EXTENSION	lure	n/a	n/a	n/a	n/a	1
344.848	0.43667245	WAVELENGTH	lure	n/a	n/a	n/a	n/a	1
345.285	0.700569174	TOOTHPASTE	lure	n/a	n/a	n/a	n/a	1
345.985	0.529567203	ICEBOX	lure	n/a	n/a	n/a	n/a	1
346.515	0.416539462	DEVIANCE	lure	n/a	n/a	n/a	n/a	1
346.931	0.399981183	DETACHMENT	lure	n/a	n/a	n/a	n/a	1
347.331	0.53329157	PICKER	lure	n/a	n/a	n/a	n/a	1
347.865	0.499995565	LYE	lure	n/a	n/a	n/a	n/a	1
348.365	0.34999387	SANDAL	lure	n/a	n/a	n/a	n/a	1
348.715	0.483326271	PULLBACK	lure	n/a	n/a	n/a	n/a	1
349.198	0.6499846	HANDIWORK	lure	n/a	n/a	n/a	n/a	1
349.848	0.569793375	STATUTE	lure	n/a	n/a	n/a	n/a	1
350.418	2.017603758	LIGHT	long	n/a	n/a	n/a	n/a	1
352.435	0.679230099	CATCHER	lure	n/a	n/a	n/a	n/a	1
353.115	0.599991044	APPETITE	lure	n/a	n/a	n/a	n/a	1
353.715	0.349988877	BEE	lure	n/a	n/a	n/a	n/a	1
354.064	0.766657614	EPICENTER	lure	n/a	n/a	n/a	n/a	1
354.831	0.566658687	SEAWAY	lure	n/a	n/a	n/a	n/a	1
355.398	0.399998477	GUITAR	lure	n/a	n/a	n/a	n/a	1
355.798	0.650024142	BRAZIER	lure	n/a	n/a	n/a	n/a	1
356.448	0.416687734	METAPHOR	lure	n/a	n/a	n/a	n/a	1
356.865	0.533260308	BEDSIDE	lure	n/a	n/a	n/a	n/a	1
357.398	0.383333297	VULTURE	lure	n/a	n/a	n/a	n/a	1
357.781	0.566651939	En/aICHMENT	lure	n/a	n/a	n/a	n/a	1
358.348	0.416659576	RAMPART	lure	n/a	n/a	n/a	n/a	1
358.764	2.016643646	TRUCK	long	n/a	n/a	n/a	n/a	1
360.781	0.366659327	NEWCOMER	lure	n/a	n/a	n/a	n/a	1
361.148	0.649995098	CAPACITY	lure	n/a	n/a	n/a	n/a	1
361.798	0.733322415	PAWNBROKER	lure	n/a	n/a	n/a	n/a	1
362.531	0.349993446	HEADSTONE	lure	n/a	n/a	n/a	n/a	1
362.881	0.583375736	KNOCKER	lure	n/a	n/a	n/a	n/a	1
363.464	0.61660864	HANDBOOK	lure	n/a	n/a	n/a	n/a	1
364.081	0.56665997	INGENUITY	lure	n/a	n/a	n/a	n/a	1
364.648	0.600027932	HORDE	lure	n/a	n/a	n/a	n/a	1
365.248	0.499948728	SOMBRERO	lure	n/a	n/a	n/a	n/a	1
365.748	0.500045677	HEN	lure	n/a	n/a	n/a	n/a	1
366.248	0.483274861	TOMB	lure	n/a	n/a	n/a	n/a	1
366.731	1.016654829	GOOSEBERRY	fruit	n/a	634	2	2	1
367.748	0.466948788	FRENZY	lure	n/a	n/a	n/a	n/a	1
368.215	0.349699718	URCHIN	lure	n/a	n/a	n/a	n/a	1
368.564	0.43333499	PASSION	lure	n/a	n/a	n/a	n/a	1
368.998	0.649985029	DEGREE	lure	n/a	n/a	n/a	n/a	1
369.648	0.616664278	CLERK	lure	n/a	n/a	n/a	n/a	1
370.264	0.633324179	RESPONDENT	lure	n/a	n/a	n/a	n/a	1
370.898	0.669332391	CARPENTRY	lure	n/a	n/a	n/a	n/a	1
371.567	0.464018327	EDDY	lure	n/a	n/a	n/a	n/a	1
372.031	0.59995213	VARIETY	lure	n/a	n/a	n/a	n/a	1
372.631	0.383379282	ASPEN	lure	n/a	n/a	n/a	n/a	1
373.014	0.383276254	OUTFLOW	lure	n/a	n/a	n/a	n/a	1
373.398	0.416660621	DAIRY	lure	n/a	n/a	n/a	n/a	1
373.814	0.750043845	CENTRALITY	lure	n/a	n/a	n/a	n/a	1
374.564	0.366660268	TEMPERANCE	lure	n/a	n/a	n/a	n/a	1
374.931	0.616610521	SUDS	short	n/a	n/a	n/a	n/a	1
375.548	0.633322541	SPECIMEN	lure	n/a	n/a	n/a	n/a	1
376.181	0.333329472	ROUGHNECK	lure	n/a	n/a	n/a	n/a	1
376.514	0.749982417	HIGHWAY	lure	n/a	n/a	n/a	n/a	1
377.264	0.716696017	TOWNSFOLK	lure	n/a	n/a	n/a	n/a	1
377.981	0.733289333	AMUSEMENT	lure	n/a	n/a	n/a	n/a	1
378.714	0.73336577	SCULLERY	lure	n/a	n/a	n/a	n/a	1
379.448	0.349947641	IGUANA	lure	n/a	n/a	n/a	n/a	1
379.797	0.583373329	STAIRWAY	lure	n/a	n/a	n/a	n/a	1
380.381	0.466609696	CARROT	lure	n/a	n/a	n/a	n/a	1
380.847	0.449992222	VENDOR	lure	n/a	n/a	n/a	n/a	1
381.297	0.616667804	BACKSIDE	lure	n/a	38	2	n/a	0
381.914	0.566653911	ARMY	lure	n/a	n/a	n/a	n/a	1
382.481	0.366661775	YOGURT	lure	n/a	n/a	n/a	n/a	1
382.847	2.049972652	TERRACE	long	n/a	n/a	n/a	n/a	1
384.897	0.666658414	LIFEBLOOD	lure	n/a	n/a	n/a	n/a	1
385.564	0.483320985	JEWEL	lure	n/a	n/a	n/a	n/a	1
386.047	0.349999137	BOASTER	lure	n/a	n/a	n/a	n/a	1
386.397	0.716648449	FISHBONE	lure	n/a	n/a	n/a	n/a	1
387.114	0.583325376	POINTER	lure	n/a	n/a	n/a	n/a	1
387.697	0.449999535	EMBLEM	lure	n/a	n/a	n/a	n/a	1
388.147	0.683321821	APPEARANCE	lure	n/a	n/a	n/a	n/a	1
388.831	0.516659876	SPLOTCH	lure	n/a	n/a	n/a	n/a	1
389.347	0.73337163	LIP	lure	n/a	n/a	n/a	n/a	1
390.081	0.699939945	INSTIGATOR	lure	n/a	n/a	n/a	n/a	1
390.781	0.483328103	GOALKEEPER	lure	n/a	n/a	n/a	n/a	1
391.264	2.01663266	HAMMER	long	n/a	n/a	n/a	n/a	1
393.281	0.749996258	OXEN	lure	n/a	n/a	n/a	n/a	1
394.031	0.3500303	DIAGRAM	lure	n/a	n/a	n/a	n/a	1
394.381	0.383288428	TUGBOAT	lure	n/a	n/a	n/a	n/a	1
394.764	0.73332265	PEASANT	lure	n/a	n/a	n/a	n/a	1
395.497	0.383323952	COHERENCY	lure	n/a	n/a	n/a	n/a	1
395.881	0.583325857	PARKA	lure	n/a	n/a	n/a	n/a	1
396.464	0.766658868	FABLE	lure	n/a	n/a	n/a	n/a	1
397.231	0.45005228	BIB	lure	n/a	n/a	n/a	n/a	1
397.681	0.616637147	PACEMAKER	lure	n/a	n/a	n/a	n/a	1
398.297	0.499953547	EXCISE	lure	n/a	n/a	n/a	n/a	1
398.797	0.699989644	SALESWOMAN	lure	n/a	n/a	n/a	n/a	1
399.497	0.699996893	NEWSFLASH	lure	n/a	n/a	n/a	n/a	1
400.197	1.016651003	PLUM	fruit	n/a	918	2	2	1
401.214	0.583370087	HOMEGROWN	lure	n/a	n/a	n/a	n/a	1
401.797	0.716664341	SINNER	lure	n/a	n/a	n/a	n/a	1
402.514	0.549940133	SPARSITY	lure	n/a	n/a	n/a	n/a	1
403.064	0.433319104	DEPICTION	lure	n/a	n/a	n/a	n/a	1
403.497	0.683327334	SCALP	lure	n/a	n/a	n/a	n/a	1
404.18	0.499997262	SAVAGERY	lure	n/a	n/a	n/a	n/a	1
404.68	0.483366999	FIREARM	lure	n/a	n/a	n/a	n/a	1
405.164	0.483325795	STARDUST	lure	n/a	n/a	n/a	n/a	1
405.647	0.418229991	CHRONOLOGY	lure	n/a	n/a	n/a	n/a	1
406.065	0.415086576	HOUSE	lure	n/a	n/a	n/a	n/a	1
406.48	0.683280289	REPORTER	lure	n/a	n/a	n/a	n/a	1
407.164	0.549999187	SUGARCANE	lure	n/a	n/a	n/a	n/a	1
407.714	0.483325974	LORDSHIP	lure	n/a	n/a	n/a	n/a	1
408.197	0.616658605	MATTER	short	n/a	n/a	n/a	n/a	1
408.814	0.600320505	PARSON	lure	n/a	n/a	n/a	n/a	1
409.414	0.353786669	TSUNAMI	lure	n/a	n/a	n/a	n/a	1
409.768	0.462540275	HARLEQUIN	lure	n/a	n/a	n/a	n/a	1
410.23	0.666658401	CARRIER	lure	n/a	n/a	n/a	n/a	1
410.897	0.483318518	DISREPAIR	lure	n/a	n/a	n/a	n/a	1
411.38	0.466665989	CRADLE	lure	n/a	n/a	n/a	n/a	1
411.847	0.749984392	STEALTH	lure	n/a	n/a	n/a	n/a	1
412.597	0.483331317	PURSUIT	lure	n/a	n/a	n/a	n/a	1
413.08	0.384953395	TRADER	lure	n/a	n/a	n/a	n/a	1
413.465	0.648365331	COMMA	lure	n/a	n/a	n/a	n/a	1
414.114	0.483321393	SHOEMAKER	lure	n/a	n/a	n/a	n/a	1
414.597	0.366662052	PROFESSOR	lure	n/a	n/a	n/a	n/a	1
414.964	0.516664183	SHAKEDOWN	lure	n/a	n/a	n/a	n/a	1
415.48	0.66665596	STUDENT	lure	n/a	n/a	n/a	n/a	1
416.147	0.599991313	FLAGPOLE	lure	n/a	n/a	n/a	n/a	1
416.747	0.618258485	TUNNEL	short	n/a	n/a	n/a	n/a	1
417.365	0.315554811	MICROPHONE	lure	n/a	n/a	n/a	n/a	1
417.681	0.599492743	STINGRAY	lure	n/a	n/a	n/a	n/a	1
418.28	0.366661607	ALLOCATION	lure	n/a	n/a	n/a	n/a	1
418.647	0.416660742	FLUKE	lure	n/a	n/a	n/a	n/a	1
419.064	0.416661683	FUTILITY	lure	n/a	n/a	n/a	n/a	1
419.48	0.433332664	FUTURISM	lure	n/a	n/a	n/a	n/a	1
419.914	0.649984842	THRUSTER	lure	n/a	n/a	n/a	n/a	1
420.564	0.333329574	LEEK	lure	n/a	n/a	n/a	n/a	1
420.897	0.683322238	LOCOMOTION	lure	n/a	n/a	n/a	n/a	1
421.58	0.366659505	CINEMA	lure	n/a	n/a	n/a	n/a	1
421.947	0.366668125	BUTTONHOOK	lure	n/a	n/a	n/a	n/a	1
422.314	0.51665685	MARSUPIAL	lure	n/a	n/a	n/a	n/a	1
422.83	0.603229799	SUBMERSION	lure	n/a	n/a	n/a	n/a	1
423.433	0.349561806	EXPEDITION	lure	n/a	n/a	n/a	n/a	1
423.783	0.46533996	INSULATION	lure	n/a	n/a	n/a	n/a	1
424.248	0.581841086	RYE	lure	n/a	n/a	n/a	n/a	1
424.83	0.750041415	HEYDAY	lure	n/a	n/a	n/a	n/a	1
425.58	0.616603363	DENT	short	n/a	n/a	n/a	n/a	1
426.197	0.683327242	FEMINISM	lure	n/a	n/a	n/a	n/a	1
426.88	0.74998434	SOUTHPAW	lure	n/a	n/a	n/a	n/a	1
427.63	0.766661433	AORTA	lure	n/a	n/a	n/a	n/a	1
428.397	0.599986285	BIRDIE	lure	n/a	n/a	n/a	n/a	1
428.997	0.51665965	SOFTY	lure	n/a	n/a	n/a	n/a	1
429.513	0.616654676	DEADWOOD	lure	n/a	n/a	n/a	n/a	1
430.13	0.483329048	SABRE	lure	n/a	n/a	n/a	n/a	1
430.613	0.4499937	SCANDAL	lure	n/a	n/a	n/a	n/a	1
431.063	0.433328578	KINSHIP	lure	n/a	n/a	n/a	n/a	1
431.497	0.44999117	TIGER	lure	n/a	n/a	n/a	n/a	1
431.947	0.616656016	DRAPER	lure	n/a	n/a	n/a	n/a	1
432.563	0.449999276	ACCURACY	lure	n/a	n/a	n/a	n/a	1
433.013	0.51665763	ADJECTIVE	lure	n/a	n/a	n/a	n/a	1
433.53	0.666654629	MILLSTONE	lure	n/a	n/a	n/a	n/a	1
434.197	1.016649834	WATERMELON	fruit	n/a	698	2	2	1
435.213	0.399999812	SLOGAN	lure	n/a	n/a	n/a	n/a	1
435.613	0.716654235	CESSATION	lure	n/a	n/a	n/a	n/a	1
436.33	0.319674276	RIFT	lure	n/a	n/a	n/a	n/a	1
436.65	0.367559144	PAINTBRUSH	lure	n/a	n/a	n/a	n/a	1
437.017	0.74756872	SEMINAR	lure	n/a	n/a	n/a	n/a	1
437.765	0.651567891	ROSEBUSH	lure	n/a	n/a	n/a	n/a	1
438.416	0.4665664	YOUTH	lure	n/a	n/a	n/a	n/a	1
438.883	0.480563218	WHIMSEY	lure	n/a	n/a	n/a	n/a	1
439.363	0.633114661	DILL	lure	n/a	n/a	n/a	n/a	1
439.997	0.749987447	SLED	lure	n/a	n/a	n/a	n/a	1
440.747	0.750041876	SHAWL	lure	n/a	n/a	n/a	n/a	1
441.497	0.683268752	STOVE	lure	n/a	n/a	n/a	n/a	1
442.18	0.633382043	BABOON	lure	n/a	n/a	n/a	n/a	1
442.813	2.016582958	CONE	long	n/a	n/a	n/a	n/a	1
444.83	0.566658418	BANDIT	lure	n/a	n/a	n/a	n/a	1
445.397	0.499994203	PAYDAY	lure	n/a	n/a	n/a	n/a	1
445.897	0.483323676	DIVA	lure	n/a	n/a	n/a	n/a	1
446.38	0.349994914	MINEFIELD	lure	n/a	n/a	n/a	n/a	1
446.73	0.583330398	PARTRIDGE	lure	n/a	n/a	n/a	n/a	1
447.313	0.516654227	OUTRAGE	lure	n/a	n/a	n/a	n/a	1
447.83	0.583323717	FLUX	lure	n/a	n/a	n/a	n/a	1
448.413	0.549995375	LETTERMAN	lure	n/a	n/a	n/a	n/a	1
448.963	0.699995956	PARAFFIN	lure	n/a	n/a	n/a	n/a	1
449.663	0.683321419	COAL	lure	n/a	n/a	n/a	n/a	1
450.346	0.499987404	PHARMACIST	lure	n/a	n/a	n/a	n/a	1
450.846	2.016638708	BUCKLE	long	n/a	n/a	n/a	n/a	1
452.863	0.333333552	FREQUENCY	lure	n/a	n/a	n/a	n/a	1
453.196	0.483318698	CASTAWAY	lure	n/a	n/a	n/a	n/a	1
453.68	0.616666022	TRANSLATOR	lure	n/a	n/a	n/a	n/a	1
454.296	0.749981376	LITERALISM	lure	n/a	n/a	n/a	n/a	1
455.046	0.734472523	SLIPPAGE	lure	n/a	n/a	n/a	n/a	1
455.781	0.532177872	TOLERATION	lure	n/a	n/a	n/a	n/a	1
456.313	0.383331563	GOBLET	lure	n/a	n/a	n/a	n/a	1
456.696	0.416663449	BONSAI	lure	n/a	n/a	n/a	n/a	1
457.113	0.599982412	COMBUSTION	lure	n/a	n/a	n/a	n/a	1
457.713	0.533334836	SMOCK	lure	n/a	n/a	n/a	n/a	1
458.246	0.333322273	HAKE	lure	n/a	n/a	n/a	n/a	1
458.58	0.749990102	ANCESTRY	lure	n/a	n/a	n/a	n/a	1
459.33	0.499994686	PORTION	lure	n/a	n/a	n/a	n/a	1
459.83	0.76665851	INSPECTION	lure	n/a	n/a	n/a	n/a	1
460.596	0.366654553	EMPORIUM	lure	n/a	n/a	n/a	n/a	1
460.963	0.633327595	WORD	lure	n/a	n/a	n/a	n/a	1
461.596	0.616663635	WEB	lure	n/a	n/a	n/a	n/a	1
462.213	0.533322514	TOWNSHIP	lure	n/a	n/a	n/a	n/a	1
462.746	0.383329375	COMMODITY	lure	n/a	n/a	n/a	n/a	1
463.13	0.449989188	PAPA	lure	n/a	n/a	n/a	n/a	1
463.58	0.749990893	COMPLEXION	lure	n/a	n/a	n/a	n/a	1
464.33	0.483323277	RUNNER	lure	n/a	n/a	n/a	n/a	1
464.813	n/a	GETAWAY	lure	n/a	n/a	n/a	n/a	1