onset	duration	stim	cond	RT	resp	cresp	acc
4.054	0.54998938	GENIE	lure	n/a	n/a	n/a	1
4.604	0.333334675	GNAT	lure	n/a	n/a	n/a	1
4.938	0.416656844	DEBT	lure	n/a	n/a	n/a	1
5.354	0.433327679	SAINT	lure	n/a	n/a	n/a	1
5.788	0.416661594	OVERDRAFT	lure	n/a	n/a	n/a	1
6.204	0.43332396	TRUCE	lure	n/a	n/a	n/a	1
6.638	0.616662646	RECEIPT	lure	n/a	n/a	n/a	1
7.254	0.466657599	BALLROOM	lure	n/a	n/a	n/a	1
7.721	0.616657983	TUNNEL	short	n/a	n/a	n/a	1
8.337	0.71665682	MASOCHIST	lure	n/a	n/a	n/a	1
9.054	0.349993163	ADAPTATION	lure	n/a	n/a	n/a	1
9.404	0.33333318	ABSTINENCE	lure	n/a	n/a	n/a	1
9.737	0.516659615	VIOLATION	lure	n/a	n/a	n/a	1
10.254	0.666653865	WOOL	lure	n/a	n/a	n/a	1
10.921	0.633321363	FLOWERBED	lure	n/a	n/a	n/a	1
11.554	0.649994222	FOYER	lure	n/a	n/a	n/a	1
12.204	0.666656902	CLAVICLE	lure	n/a	n/a	n/a	1
12.871	0.716655064	PLAYSUIT	lure	n/a	n/a	n/a	1
13.587	0.333325191	CONSOn/aCE	lure	n/a	n/a	n/a	1
13.921	0.483331024	GRENADE	lure	n/a	n/a	n/a	1
14.404	0.749989163	SANDALWOOD	lure	n/a	n/a	n/a	1
15.154	0.733322981	MEAL	lure	n/a	n/a	n/a	1
15.887	0.733323888	ULCERATION	lure	n/a	n/a	n/a	1
16.621	2.016637311	LIGHT	long	n/a	n/a	n/a	1
18.637	0.666651581	PEN	lure	n/a	n/a	n/a	1
19.304	0.733327527	DEFEATISM	lure	n/a	n/a	n/a	1
20.037	0.749987107	WINDOWPANE	lure	n/a	n/a	n/a	1
20.787	0.433326818	WOMBAT	lure	n/a	n/a	n/a	1
21.221	0.499993044	PALLET	lure	n/a	n/a	n/a	1
21.721	0.583326258	KILOMETER	lure	n/a	n/a	n/a	1
22.304	0.667918785	PENCE	lure	n/a	n/a	n/a	1
22.972	0.619125959	HUSSY	lure	n/a	n/a	n/a	1
23.591	0.648565699	DINER	lure	n/a	n/a	n/a	1
24.24	0.347743969	MOCHA	lure	n/a	n/a	n/a	1
24.587	2.016585423	CONE	long	n/a	n/a	n/a	1
26.604	0.616657032	CURATOR	lure	n/a	n/a	n/a	1
27.221	0.733323737	WARRANTY	lure	n/a	n/a	n/a	1
27.954	0.716716262	SMITH	lure	n/a	n/a	n/a	1
28.671	0.583259723	SULFUR	lure	n/a	n/a	n/a	1
29.254	0.402050859	NONE	lure	n/a	n/a	n/a	1
29.656	0.497940816	INNING	lure	n/a	n/a	n/a	1
30.154	0.63337415	TUMBLER	lure	n/a	n/a	n/a	1
30.787	0.516608776	IDIOM	lure	n/a	n/a	n/a	1
31.304	0.466661085	GUSHER	lure	n/a	n/a	n/a	1
31.77	0.616711747	WOMENFOLK	lure	n/a	n/a	n/a	1
32.387	0.499935564	VOGUE	lure	n/a	n/a	n/a	1
32.887	1.016707287	ELDERBERRY	fruit	723	2	2	1
33.904	0.385696634	QUART	lure	n/a	n/a	n/a	1
34.29	0.647570734	OVERFLOW	lure	n/a	n/a	n/a	1
34.937	0.416656721	WIGHT	lure	n/a	n/a	n/a	1
35.354	0.500057459	WRECKER	lure	n/a	n/a	n/a	1
35.854	0.699952042	CONFORMITY	lure	n/a	n/a	n/a	1
36.554	0.649966594	SLAB	lure	n/a	n/a	n/a	1
37.204	0.383329066	PARITY	lure	n/a	n/a	n/a	1
37.587	0.33332716	SAVIOR	lure	n/a	n/a	n/a	1
37.92	0.766657259	HEMLOCK	lure	n/a	n/a	n/a	1
38.687	0.383323369	FEELER	lure	n/a	n/a	n/a	1
39.07	0.666658343	CUTTER	lure	n/a	n/a	n/a	1
39.737	0.349991736	GOAL	lure	n/a	n/a	n/a	1
40.087	0.466713974	CREWMEN	lure	n/a	n/a	n/a	1
40.554	0.666663379	FATALITY	lure	n/a	n/a	n/a	1
41.22	1.018945861	LIME	fruit	628	2	2	1
42.239	0.380973818	CUPBOARD	lure	n/a	n/a	n/a	1
42.62	0.649992529	DISCLOSURE	lure	n/a	n/a	n/a	1
43.27	0.483330167	CORONER	lure	n/a	n/a	n/a	1
43.754	0.749986134	REVELATION	lure	n/a	n/a	n/a	1
44.504	0.433328777	RELIEF	lure	n/a	n/a	n/a	1
44.937	0.651288812	DICTATOR	lure	n/a	n/a	n/a	1
45.588	0.515563683	SKYDIVER	lure	n/a	n/a	n/a	1
46.104	0.383124061	IMPUNITY	lure	n/a	n/a	n/a	1
46.487	0.64998729	PALEFACE	lure	n/a	n/a	n/a	1
47.137	0.499996143	PARAPHRASE	lure	n/a	n/a	n/a	1
47.637	0.699986208	TAKEOVER	lure	n/a	n/a	n/a	1
48.337	0.550048677	SWEETIE	lure	n/a	n/a	n/a	1
48.887	0.749939546	EARTHQUAKE	lure	n/a	n/a	n/a	1
49.637	2.016632644	BUBBLE	long	n/a	n/a	n/a	1
51.654	0.633323276	JUNCTION	lure	n/a	n/a	n/a	1
52.287	0.618649545	ROVER	lure	n/a	n/a	n/a	1
52.906	0.714668678	REDHEAD	lure	n/a	n/a	n/a	1
53.62	0.566737218	SUNBURN	lure	n/a	n/a	n/a	1
54.187	0.683242361	MIDNIGHT	lure	n/a	n/a	n/a	1
54.87	0.749992255	REGULARITY	lure	n/a	n/a	n/a	1
55.62	0.6666544	BENZENE	lure	n/a	n/a	n/a	1
56.287	0.721170685	MAGNESIA	lure	n/a	n/a	n/a	1
57.008	0.54548231	GREENERY	lure	n/a	n/a	n/a	1
57.553	0.616651177	SCREEN	short	n/a	n/a	n/a	1
58.17	0.633329833	ARMHOLE	lure	n/a	n/a	n/a	1
58.803	0.499990089	FAIRYLAND	lure	n/a	n/a	n/a	1
59.303	0.449995894	JUNCTURE	lure	n/a	n/a	n/a	1
59.753	0.666655376	STOPWATCH	lure	n/a	n/a	n/a	1
60.42	0.666657075	PLANELOAD	lure	n/a	n/a	n/a	1
61.087	0.616658964	BOTTLENECK	lure	n/a	n/a	n/a	1
61.703	0.549992489	VOUCHER	lure	n/a	n/a	n/a	1
62.253	0.666657413	PILL	lure	n/a	n/a	n/a	1
62.92	0.666717519	CATACLYSM	lure	n/a	n/a	n/a	1
63.587	0.499926812	UNDERGRAD	lure	n/a	n/a	n/a	1
64.087	0.600051437	REGENCY	lure	n/a	n/a	n/a	1
64.687	0.399989336	FINALE	lure	n/a	n/a	n/a	1
65.087	0.533327425	WICKET	lure	n/a	n/a	n/a	1
65.62	1.049931875	PLUM	fruit	n/a	n/a	2	0
66.67	0.566655651	DOCILITY	lure	n/a	n/a	n/a	1
67.237	0.549993547	NUTSHELL	lure	n/a	n/a	n/a	1
67.787	0.733320243	COLLECTION	lure	n/a	n/a	n/a	1
68.52	0.733328202	RUSTLER	lure	n/a	n/a	n/a	1
69.253	0.749989227	PRIMATE	lure	n/a	n/a	n/a	1
70.003	0.699986331	FEVER	lure	n/a	n/a	n/a	1
70.703	0.416664425	HARDTACK	lure	n/a	n/a	n/a	1
71.12	0.333323375	HURRICANE	lure	n/a	n/a	n/a	1
71.453	0.566658099	NUNNERY	lure	n/a	n/a	n/a	1
72.02	0.400058204	OVERLAP	lure	n/a	n/a	n/a	1
72.42	0.633263534	ASPHALT	lure	n/a	n/a	n/a	1
73.053	0.718783473	FOOTWORK	lure	n/a	n/a	n/a	1
73.772	0.731193534	FOOTWEAR	lure	n/a	n/a	n/a	1
74.503	0.61666341	SANDPAPER	short	n/a	n/a	n/a	1
75.12	0.483324152	PLAYROOM	lure	n/a	n/a	n/a	1
75.603	0.33332718	RIVERBED	lure	n/a	n/a	n/a	1
75.937	0.599987132	LAWMAN	lure	n/a	n/a	n/a	1
76.537	0.49999657	MARTYRDOM	lure	n/a	n/a	n/a	1
77.037	0.69998729	DECOY	lure	n/a	n/a	n/a	1
77.736	0.76666193	BRAVERY	lure	n/a	n/a	n/a	1
78.503	0.733322058	TONIC	lure	n/a	n/a	n/a	1
79.236	0.683322457	AHOY	lure	n/a	n/a	n/a	1
79.92	0.616655708	FOOTAGE	lure	n/a	n/a	n/a	1
80.536	0.333334015	BREAD	lure	n/a	n/a	n/a	1
80.87	0.51803362	JESTER	lure	n/a	n/a	n/a	1
81.388	0.381951968	ACCOUNTANT	lure	n/a	n/a	n/a	1
81.77	0.466653679	NARRATOR	lure	n/a	n/a	n/a	1
82.236	0.38332959	INSET	lure	n/a	n/a	n/a	1
82.62	0.61665776	VAULT	short	n/a	n/a	n/a	1
83.236	0.68332679	KNAPSACK	lure	n/a	n/a	n/a	1
83.92	0.566653298	GARDENER	lure	n/a	n/a	n/a	1
84.486	0.5833825	RECITATIVE	lure	n/a	n/a	n/a	1
85.07	0.583269357	DENOTATION	lure	n/a	n/a	n/a	1
85.653	0.69998992	CANON	lure	n/a	n/a	n/a	1
86.353	0.433325514	WEAVER	lure	n/a	n/a	n/a	1
86.786	0.733322867	MAMA	lure	n/a	n/a	n/a	1
87.52	0.38333291	LOOKOUT	lure	n/a	n/a	n/a	1
87.903	0.383324318	PERSONA	lure	n/a	n/a	n/a	1
88.286	0.566661338	FABRIC	lure	n/a	n/a	n/a	1
88.853	0.749986075	SPINACH	lure	n/a	n/a	n/a	1
89.603	0.59999156	LUNCHROOM	lure	n/a	n/a	n/a	1
90.203	0.383328059	SEACOAST	lure	n/a	n/a	n/a	1
90.586	0.549990238	EYELINER	lure	n/a	n/a	n/a	1
91.136	0.616657736	SUDS	short	n/a	n/a	n/a	1
91.753	0.533325419	CHECKBOOK	lure	n/a	n/a	n/a	1
92.286	0.599992277	SWATTER	lure	n/a	n/a	n/a	1
92.886	0.433328201	DOCKET	lure	n/a	n/a	n/a	1
93.32	0.633325101	SUPPER	lure	n/a	n/a	n/a	1
93.953	0.549989576	WATCHMAN	lure	n/a	n/a	n/a	1
94.503	0.566662326	DEFENSE	lure	n/a	n/a	n/a	1
95.07	0.583327222	CORRECTION	lure	n/a	n/a	n/a	1
95.653	0.583324681	SPINDLE	lure	n/a	n/a	n/a	1
96.236	0.3333229	ROTUNDA	lure	n/a	n/a	n/a	1
96.57	0.333328267	CONFESSOR	lure	n/a	n/a	n/a	1
96.903	0.399993859	VALIDITY	lure	n/a	n/a	n/a	1
97.303	0.733326347	RITUALISM	lure	n/a	n/a	n/a	1
98.036	0.466657699	OBSERVANCE	lure	n/a	n/a	n/a	1
98.503	0.566661606	En/aOLLMENT	lure	n/a	n/a	n/a	1
99.07	0.666658835	LUNACY	lure	n/a	n/a	n/a	1
99.736	2.06663393	TRUCK	long	n/a	n/a	n/a	1
101.803	0.733324237	ENSEMBLE	lure	n/a	n/a	n/a	1
102.536	0.583325137	ASSEMBLY	lure	n/a	n/a	n/a	1
103.119	0.416659988	BARNACLE	lure	n/a	n/a	n/a	1
103.536	0.866653057	DELEGATE	lure	n/a	n/a	n/a	1
104.403	0.633326012	BANDAGE	lure	n/a	n/a	n/a	1
105.036	0.516897585	DAME	lure	n/a	n/a	n/a	1
105.553	0.466422017	CRACKDOWN	lure	n/a	n/a	n/a	1
106.019	0.433327657	NUTRIENT	lure	n/a	n/a	n/a	1
106.453	0.499991542	VARSITY	lure	n/a	n/a	n/a	1
106.953	0.399994575	RIM	lure	n/a	n/a	n/a	1
107.353	0.41666154	STREETCAR	lure	n/a	n/a	n/a	1
107.769	2.017964034	BUCKLE	long	n/a	n/a	n/a	1
109.787	0.765329407	IMITATION	lure	n/a	n/a	n/a	1
110.553	0.416721048	DESCENT	lure	n/a	n/a	n/a	1
110.969	0.383266781	PUMICE	lure	n/a	n/a	n/a	1
111.353	0.516658918	IMPAIRMENT	lure	n/a	n/a	n/a	1
111.869	0.54999298	WETTER	lure	n/a	n/a	n/a	1
112.419	0.399992397	PANTRY	lure	n/a	n/a	n/a	1
112.819	0.36672034	ACCORDANCE	lure	n/a	n/a	n/a	1
113.186	0.449934037	COLONIST	lure	n/a	n/a	n/a	1
113.636	0.566660371	LEPRECHAUN	lure	n/a	n/a	n/a	1
114.203	0.683323686	PETTICOAT	lure	n/a	n/a	n/a	1
114.886	0.333327138	SHOELACE	lure	n/a	n/a	n/a	1
115.219	0.466661776	SEAPORT	lure	n/a	n/a	n/a	1
115.686	2.016638614	BRIDGE	long	n/a	n/a	n/a	1
117.703	0.416659549	CHILDREN	lure	n/a	n/a	n/a	1
118.119	0.666657647	EMIGRATION	lure	n/a	n/a	n/a	1
118.786	0.533319298	SIBLING	lure	n/a	n/a	n/a	1
119.319	0.416660949	GRANDSTAND	lure	n/a	n/a	n/a	1
119.736	0.666737507	SHORTBREAD	lure	n/a	n/a	n/a	1
120.403	0.383251451	AFTERNOON	lure	n/a	n/a	n/a	1
120.786	0.499994836	PAINTBOX	lure	n/a	n/a	n/a	1
121.286	0.349993446	SALTER	lure	n/a	n/a	n/a	1
121.636	0.566716411	POTTERY	lure	n/a	n/a	n/a	1
122.203	0.716598465	STOPOVER	lure	n/a	n/a	n/a	1
122.919	0.616653067	BULLETIN	lure	n/a	n/a	n/a	1
123.536	0.400001627	DIARY	lure	n/a	n/a	n/a	1
123.936	1.016649067	BLUEBERRY	fruit	662	2	2	1
124.952	0.416656211	SEABED	lure	n/a	n/a	n/a	1
125.369	0.449996584	PULPIT	lure	n/a	n/a	n/a	1
125.819	0.466662541	GENTLEMAN	lure	n/a	n/a	n/a	1
126.286	0.466660485	ASSOn/aCE	lure	n/a	n/a	n/a	1
126.752	0.466659636	THRONE	lure	n/a	n/a	n/a	1
127.219	0.516656918	BLACKJACK	lure	n/a	n/a	n/a	1
127.736	0.599993553	STRUDEL	lure	n/a	n/a	n/a	1
128.336	0.36666004	ROMP	lure	n/a	n/a	n/a	1
128.702	0.483322403	BRAIN	lure	n/a	n/a	n/a	1
129.186	0.716662838	ELATION	lure	n/a	n/a	n/a	1
129.902	0.716650289	DAYLIGHT	lure	n/a	n/a	n/a	1
130.619	0.516660913	WATCHTOWER	lure	n/a	n/a	n/a	1
131.136	0.616661523	INDUCEMENT	lure	n/a	n/a	n/a	1
131.752	0.483384036	NIGHTHAWK	lure	n/a	n/a	n/a	1
132.236	1.016595221	CHERRY	fruit	692	2	2	1
133.252	0.516658642	DUALISM	lure	n/a	n/a	n/a	1
133.769	0.449987366	UNDERBELLY	lure	n/a	n/a	n/a	1
134.219	0.583330705	PLENITUDE	lure	n/a	n/a	n/a	1
134.802	0.733381849	DEVOTION	lure	n/a	n/a	n/a	1
135.536	0.702184919	DOORNAIL	lure	n/a	n/a	n/a	1
136.238	0.585527579	SLINGSHOT	lure	n/a	n/a	n/a	1
136.823	0.695593507	JAB	lure	n/a	n/a	n/a	1
137.519	0.333268298	MADHOUSE	lure	n/a	n/a	n/a	1
137.852	0.749985224	MANTLE	lure	n/a	n/a	n/a	1
138.602	0.483329997	HOOLIGAN	lure	n/a	n/a	n/a	1
139.086	0.41665972	BOUNTY	lure	n/a	n/a	n/a	1
139.502	0.366660981	MAXIMA	lure	n/a	n/a	n/a	1
139.869	0.700510922	BEHAVIOR	lure	n/a	n/a	n/a	1
140.569	0.616138126	PYRAMID	short	n/a	n/a	n/a	1
141.186	0.699989799	POTPOURRI	lure	n/a	n/a	n/a	1
141.886	0.416661783	STEAD	lure	n/a	n/a	n/a	1
142.302	0.383326883	EXISTENCE	lure	n/a	n/a	n/a	1
142.686	0.666656569	READER	lure	n/a	n/a	n/a	1
143.352	0.716723821	IMPOSITION	lure	n/a	n/a	n/a	1
144.069	0.349927295	PESSIMIST	lure	n/a	n/a	n/a	1
144.419	0.616659375	DEUCE	lure	n/a	n/a	n/a	1
145.036	0.649990815	TRACER	lure	n/a	n/a	n/a	1
145.686	0.416660775	LOBSTER	lure	n/a	n/a	n/a	1
146.102	0.549991032	SIDECAR	lure	n/a	n/a	n/a	1
146.652	0.566731566	MONGOOSE	lure	n/a	n/a	n/a	1
147.219	0.733250778	ADVENTURE	lure	n/a	n/a	n/a	1
147.952	0.749987605	BELIEF	lure	n/a	n/a	n/a	1
148.702	0.416660657	CHECKLIST	lure	n/a	n/a	n/a	1
149.119	0.616720239	CURTAIN	short	n/a	n/a	n/a	1
149.736	0.483271132	HESITATION	lure	n/a	n/a	n/a	1
150.219	0.400844187	GREENHOUSE	lure	n/a	n/a	n/a	1
150.62	0.565804421	AIRLOCK	lure	n/a	n/a	n/a	1
151.185	0.449991626	VEST	lure	n/a	n/a	n/a	1
151.635	0.616654199	OPTIMIST	lure	n/a	n/a	n/a	1
152.252	0.5499968	REVERSAL	lure	n/a	n/a	n/a	1
152.802	0.583324585	TOXIN	lure	n/a	n/a	n/a	1
153.385	0.550055224	DEFAMATION	lure	n/a	n/a	n/a	1
153.935	0.716594099	SUNLIGHT	lure	n/a	n/a	n/a	1
154.652	0.383325304	SONOGRAM	lure	n/a	n/a	n/a	1
155.035	0.599991646	GIGGLE	lure	n/a	n/a	n/a	1
155.635	0.499992625	PONCHO	lure	n/a	n/a	n/a	1
156.135	0.649991737	COCOA	lure	n/a	n/a	n/a	1
156.785	0.71665833	TROUSER	lure	n/a	n/a	n/a	1
157.502	1.01664606	APPLE	fruit	642	2	2	1
158.519	0.416714274	WATERMILL	lure	n/a	n/a	n/a	1
158.935	0.416610519	TURNOFF	lure	n/a	n/a	n/a	1
159.352	0.68332318	ALCHEMIST	lure	n/a	n/a	n/a	1
160.035	0.352391591	PEPTIDE	lure	n/a	n/a	n/a	1
160.388	0.530930321	SOLICITUDE	lure	n/a	n/a	n/a	1
160.919	0.766655529	PROTEGE	lure	n/a	n/a	n/a	1
161.685	0.766656354	PLASMA	lure	n/a	n/a	n/a	1
162.452	0.533323449	EARACHE	lure	n/a	n/a	n/a	1
162.985	0.716658503	FERRYMAN	lure	n/a	n/a	n/a	1
163.702	0.668685605	DECADENCE	lure	n/a	n/a	n/a	1
164.371	0.498012032	LIQUIDITY	lure	n/a	n/a	n/a	1
164.869	0.616604715	TORMENTOR	lure	n/a	n/a	n/a	1
165.485	0.383327731	ANTIFREEZE	lure	n/a	n/a	n/a	1
165.869	0.616662187	MATTER	short	n/a	n/a	n/a	1
166.485	0.566657862	HUBCAP	lure	n/a	n/a	n/a	1
167.052	0.316659431	CONCORD	lure	n/a	n/a	n/a	1
167.369	0.666722364	IDEALIST	lure	n/a	n/a	n/a	1
168.035	0.7499279	ROULETTE	lure	n/a	n/a	n/a	1
168.785	0.666656386	TEAPOT	lure	n/a	n/a	n/a	1
169.452	0.716771999	TRANCE	lure	n/a	n/a	n/a	1
170.169	0.599876142	DISSERVICE	lure	n/a	n/a	n/a	1
170.768	0.449993491	LUMINOSITY	lure	n/a	n/a	n/a	1
171.218	0.599989736	TENEMENT	lure	n/a	n/a	n/a	1
171.818	0.499995204	SUMMATION	lure	n/a	n/a	n/a	1
172.318	0.666751428	SMOG	lure	n/a	n/a	n/a	1
172.985	0.383232307	PHYSICIAN	lure	n/a	n/a	n/a	1
173.368	0.383400315	COMPLEMENT	lure	n/a	n/a	n/a	1
173.752	2.016565127	TERRACE	long	n/a	n/a	n/a	1
175.768	0.733325021	CHAMELEON	lure	n/a	n/a	n/a	1
176.502	0.683322749	TOURIST	lure	n/a	n/a	n/a	1
177.185	0.699990178	SENSUALITY	lure	n/a	n/a	n/a	1
177.885	0.733323008	MORPHINE	lure	n/a	n/a	n/a	1
178.618	0.516656705	MAGNET	lure	n/a	n/a	n/a	1
179.135	0.533326893	IMMINENCE	lure	n/a	n/a	n/a	1
179.668	0.466659177	SCRAPBOOK	lure	n/a	n/a	n/a	1
180.135	0.516663377	GLASSHOUSE	lure	n/a	n/a	n/a	1
180.652	0.433388344	ENSIGN	lure	n/a	n/a	n/a	1
181.085	0.471143022	COTTONTAIL	lure	n/a	n/a	n/a	1
181.556	0.731569926	COLLISION	lure	n/a	n/a	n/a	1
182.288	2.016661583	HAMMER	long	n/a	n/a	n/a	1
184.304	0.367499982	FOREFRONT	lure	n/a	n/a	n/a	1
184.672	0.546631952	GNOME	lure	n/a	n/a	n/a	1
185.219	0.399696234	MAILMAN	lure	n/a	n/a	n/a	1
185.618	0.550039173	EQUITY	lure	n/a	n/a	n/a	1
186.168	0.749938021	INDIGNITY	lure	n/a	n/a	n/a	1
186.918	0.633329885	QUOTATION	lure	n/a	n/a	n/a	1
187.552	0.466658789	HANGOVER	lure	n/a	n/a	n/a	1
188.018	0.433323416	BLOWTORCH	lure	n/a	n/a	n/a	1
188.452	0.349998361	LEAFLET	lure	n/a	n/a	n/a	1
188.802	0.31666406	AMPHIBIAN	lure	n/a	n/a	n/a	1
189.118	0.699993233	PROTOTYPE	lure	n/a	n/a	n/a	1
189.818	0.416660439	TORQUE	lure	n/a	n/a	n/a	1
190.235	0.666652353	DENT	short	n/a	n/a	n/a	1
190.902	0.366662924	EXTREMISM	lure	n/a	n/a	n/a	1
191.268	0.649990156	THICKENER	lure	n/a	n/a	n/a	1
191.918	0.44999317	CONVENT	lure	n/a	n/a	n/a	1
192.368	0.333328477	DENTURE	lure	n/a	n/a	n/a	1
192.702	0.433327316	ETHICIST	lure	n/a	n/a	n/a	1
193.135	0.483326435	DEFENCE	lure	n/a	n/a	n/a	1
193.618	0.516725462	KIDDY	lure	n/a	n/a	n/a	1
194.135	0.516591759	MUSTACHE	lure	n/a	n/a	n/a	1
194.651	0.366737429	EXPO	lure	n/a	n/a	n/a	1
195.018	0.499915951	NORMALCY	lure	n/a	n/a	n/a	1
195.518	0.349997441	GUNPLAY	lure	n/a	n/a	n/a	1
195.868	0.699990688	LOVER	lure	n/a	n/a	n/a	1
196.568	0.333387188	OKRA	lure	n/a	n/a	n/a	1
196.902	0.583270598	ELEPHANT	lure	n/a	n/a	n/a	1
197.485	0.383382363	PAGEANTRY	lure	n/a	n/a	n/a	1
197.868	0.366665159	MARBLE	lure	n/a	n/a	n/a	1
198.235	0.616656525	MATCH	short	n/a	n/a	n/a	1
198.851	0.599928804	POT	lure	n/a	n/a	n/a	1
199.451	0.333411566	CRIMP	lure	n/a	n/a	n/a	1
199.785	0.733240327	THEOLOGIAN	lure	n/a	n/a	n/a	1
200.518	0.749989542	DIPLOMAT	lure	n/a	n/a	n/a	1
201.268	0.383389851	PLATEFUL	lure	n/a	n/a	n/a	1
201.651	0.366656282	FESTIVAL	lure	n/a	n/a	n/a	1
202.018	0.399934986	DELICACY	lure	n/a	n/a	n/a	1
202.418	0.716740758	SYMBOL	lure	n/a	n/a	n/a	1
203.135	0.716575969	SOFTENER	lure	n/a	n/a	n/a	1
203.851	0.633384036	SOCIALITY	lure	n/a	n/a	n/a	1
204.485	0.366600418	RIDER	lure	n/a	n/a	n/a	1
204.851	0.633319176	LEISURE	lure	n/a	n/a	n/a	1
205.485	0.533329238	SURNAME	lure	n/a	n/a	n/a	1
206.018	0.599991418	DOC	lure	n/a	n/a	n/a	1
206.618	2.016638761	ROPE	long	n/a	n/a	n/a	1
208.635	0.366659792	PREVALENCE	lure	n/a	n/a	n/a	1
209.001	0.399996412	VISA	lure	n/a	n/a	n/a	1
209.401	0.399993787	CLOSEOUT	lure	n/a	n/a	n/a	1
209.801	0.533325069	MOKE	lure	n/a	n/a	n/a	1
210.335	0.533326514	COCKTAIL	lure	n/a	n/a	n/a	1
210.868	0.483323332	SCUBA	lure	n/a	n/a	n/a	1
211.351	0.69999232	LUSTRE	lure	n/a	n/a	n/a	1
212.051	0.466658416	EXCLUSION	lure	n/a	n/a	n/a	1
212.518	0.733375938	TIDEWATER	lure	n/a	n/a	n/a	1
213.251	0.466607696	BINGO	lure	n/a	n/a	n/a	1
213.718	0.733321871	BOUGH	lure	n/a	n/a	n/a	1
214.451	0.717618621	HEADMASTER	lure	n/a	n/a	n/a	1
215.169	2.015679184	DIRT	long	n/a	n/a	n/a	1
217.184	0.316739357	FOLIAGE	lure	n/a	n/a	n/a	1
217.501	0.533247003	INVALIDITY	lure	n/a	n/a	n/a	1
218.034	0.33332568	ISLANDER	lure	n/a	n/a	n/a	1
218.368	0.716768288	TURPENTINE	lure	n/a	n/a	n/a	1
219.085	0.549881389	MOTIVATION	lure	n/a	n/a	n/a	1
219.634	0.749992128	HALL	lure	n/a	n/a	n/a	1
220.384	0.549991156	KING	lure	n/a	n/a	n/a	1
220.934	0.583323533	PEARL	lure	n/a	n/a	n/a	1
221.518	0.649992589	SUBPLOT	lure	n/a	n/a	n/a	1
222.168	0.449991943	LADY	lure	n/a	n/a	n/a	1
222.618	0.616660194	PLUMAGE	lure	n/a	n/a	n/a	1
223.234	0.35005622	GOAT	lure	n/a	n/a	n/a	1
223.584	0.499930061	WOODBLOCK	lure	n/a	n/a	n/a	1
224.084	0.733389818	SOLEMNITY	lure	n/a	n/a	n/a	1
224.818	0.416589301	FLOODLIGHT	lure	n/a	n/a	n/a	1
225.234	0.333332755	TREATMENT	lure	n/a	n/a	n/a	1
225.568	0.349995724	RAZORBACK	lure	n/a	n/a	n/a	1
225.918	0.466659315	EXEMPTION	lure	n/a	n/a	n/a	1
226.384	0.349990787	SULPHUR	lure	n/a	n/a	n/a	1
226.734	n/a	TESTIMONY	lure	n/a	n/a	n/a	1
238.018	0.666657935	VALLEY	lure	n/a	n/a	n/a	1
238.684	0.699991335	HOSIERY	lure	n/a	n/a	n/a	1
239.384	0.716657427	TEASPOON	lure	n/a	n/a	n/a	1
240.101	0.549991672	MECHANISM	lure	n/a	n/a	n/a	1
240.651	0.666654744	GUARDIAN	lure	n/a	n/a	n/a	1
241.317	0.549994432	HARMONICA	lure	n/a	n/a	n/a	1
241.867	0.616660354	VAULT	short	n/a	n/a	n/a	1
242.484	0.366722495	CENTURION	lure	n/a	n/a	n/a	1
242.851	0.349986821	CRYSTAL	lure	n/a	n/a	n/a	1
243.201	0.466600885	FURNITURE	lure	n/a	n/a	n/a	1
243.667	0.483332882	WANDERER	lure	n/a	n/a	n/a	1
244.151	0.366657125	RINGER	lure	n/a	n/a	n/a	1
244.517	0.666656967	REALISM	lure	n/a	n/a	n/a	1
245.184	0.60005353	COOKIE	lure	n/a	n/a	n/a	1
245.784	0.64997607	READOUT	lure	n/a	n/a	n/a	1
246.434	0.683279789	DREAMLAND	lure	n/a	n/a	n/a	1
247.117	0.633322213	CHIPMUNK	lure	n/a	n/a	n/a	1
247.751	0.549990713	NONFICTION	lure	n/a	n/a	n/a	1
248.301	0.333330797	VINEGAR	lure	n/a	n/a	n/a	1
248.634	0.733320307	SOLSTICE	lure	n/a	n/a	n/a	1
249.367	0.483374738	BONBON	lure	n/a	n/a	n/a	1
249.851	0.453422474	RAYON	lure	n/a	n/a	n/a	1
250.304	0.61556044	MATCH	short	n/a	n/a	n/a	1
250.92	0.497680502	BANKRUPTCY	lure	n/a	n/a	n/a	1
251.417	0.383262678	LEGACY	lure	n/a	n/a	n/a	1
251.801	0.766656416	DIVIDER	lure	n/a	n/a	n/a	1
252.567	0.533376101	SCRUPLE	lure	n/a	n/a	n/a	1
253.101	0.449943301	CHIFFON	lure	n/a	n/a	n/a	1
253.551	0.633360896	COWBOY	lure	n/a	n/a	n/a	1
254.184	0.599951863	LOUNGER	lure	n/a	n/a	n/a	1
254.784	0.483322259	SCRUFF	lure	n/a	n/a	n/a	1
255.267	0.366661609	TRIBUNE	lure	n/a	n/a	n/a	1
255.634	0.449992953	SUEDE	lure	n/a	n/a	n/a	1
256.084	0.399999697	SULFIDE	lure	n/a	n/a	n/a	1
256.484	0.549991737	CRIME	lure	n/a	n/a	n/a	1
257.034	0.399994479	HEAVEN	lure	n/a	n/a	n/a	1
257.434	0.549988845	PLATTER	lure	n/a	n/a	n/a	1
257.984	0.46818737	DORMITORY	lure	n/a	n/a	n/a	1
258.452	2.015113153	BRIDGE	long	n/a	n/a	n/a	1
260.467	0.566661784	PREPAYMENT	lure	n/a	n/a	n/a	1
261.034	0.666713729	RATIO	lure	n/a	n/a	n/a	1
261.701	0.599929347	MASOn/aY	lure	n/a	n/a	n/a	1
262.301	0.716656585	FARMLAND	lure	n/a	n/a	n/a	1
263.017	0.570633978	FANATICISM	lure	n/a	n/a	n/a	1
263.588	0.700569308	TYPOGRAPHY	lure	n/a	n/a	n/a	1
264.288	0.678772037	ANKLE	lure	n/a	n/a	n/a	1
264.967	0.749986657	INVASION	lure	n/a	n/a	n/a	1
265.717	0.499994402	KEROSENE	lure	n/a	n/a	n/a	1
266.217	0.366663744	BUNT	lure	n/a	n/a	n/a	1
266.584	1.049986234	PINEAPPLE	fruit	726	2	2	1
267.634	0.69998311	BASEMAN	lure	n/a	n/a	n/a	1
268.334	0.666659944	CATHEDRAL	lure	n/a	n/a	n/a	1
269	0.416720487	NEEDLEWORK	lure	n/a	n/a	n/a	1
269.417	0.466600977	TRAINMAN	lure	n/a	n/a	n/a	1
269.884	0.516655886	CHITCHAT	lure	n/a	n/a	n/a	1
270.4	0.566656027	RUMP	lure	n/a	n/a	n/a	1
270.967	0.699990026	PADDOCK	lure	n/a	n/a	n/a	1
271.667	0.400002302	ROOF	lure	n/a	n/a	n/a	1
272.067	0.549990341	WHIPLASH	lure	n/a	n/a	n/a	1
272.617	0.516655442	SHOWCASE	lure	n/a	n/a	n/a	1
273.134	0.366665513	GRANITE	lure	n/a	n/a	n/a	1
273.5	0.399987257	NOVELIST	lure	n/a	n/a	n/a	1
273.9	0.549991354	AMAZEMENT	lure	n/a	n/a	n/a	1
274.45	0.616664121	AFFECTION	lure	n/a	n/a	n/a	1
275.067	2.01663307	CONE	long	n/a	n/a	n/a	1
277.084	0.649994837	FEEDBAG	lure	n/a	n/a	n/a	1
277.734	0.399997207	HARDBOARD	lure	n/a	n/a	n/a	1
278.134	0.616654176	SCOREBOARD	lure	n/a	n/a	n/a	1
278.75	0.46675929	MOLAR	lure	n/a	n/a	n/a	1
279.217	0.399895711	FORTUNE	lure	n/a	n/a	n/a	1
279.617	0.750047491	SADDLEBAG	lure	n/a	n/a	n/a	1
280.367	0.533317748	ABSORPTION	lure	n/a	n/a	n/a	1
280.9	0.351895904	PLAYGROUND	lure	n/a	n/a	n/a	1
281.252	0.599117543	SEQUOIA	lure	n/a	n/a	n/a	1
281.851	0.449032383	ECLIPSE	lure	n/a	n/a	n/a	1
282.3	0.333212842	TRAFFIC	lure	n/a	n/a	n/a	1
282.634	0.39999284	FLURRY	lure	n/a	n/a	n/a	1
283.034	1.016715161	MELON	fruit	657	2	2	1
284.05	0.483262688	WRIST	lure	n/a	n/a	n/a	1
284.534	0.616661482	REMARRIAGE	lure	n/a	n/a	n/a	1
285.15	0.749986412	LOBE	lure	n/a	n/a	n/a	1
285.9	0.433331203	CHERUB	lure	n/a	n/a	n/a	1
286.334	0.466652163	ARTICHOKE	lure	n/a	n/a	n/a	1
286.8	0.683375014	SEAWEED	lure	n/a	n/a	n/a	1
287.484	0.466611334	COOKER	lure	n/a	n/a	n/a	1
287.95	0.666662127	GASMASK	lure	n/a	n/a	n/a	1
288.617	0.683321388	BALE	lure	n/a	n/a	n/a	1
289.3	0.333327153	POETRY	lure	n/a	n/a	n/a	1
289.633	0.38332769	DETERGENT	lure	n/a	n/a	n/a	1
290.017	0.699987145	PULLOVER	lure	n/a	n/a	n/a	1
290.717	0.716706092	CZAR	lure	n/a	n/a	n/a	1
291.433	2.016588914	TERRACE	long	n/a	n/a	n/a	1
293.45	0.500052237	BREASTBONE	lure	n/a	n/a	n/a	1
293.95	0.516601849	FIREPLACE	lure	n/a	n/a	n/a	1
294.467	0.449995126	SPANIEL	lure	n/a	n/a	n/a	1
294.917	0.699992919	ACETONE	lure	n/a	n/a	n/a	1
295.617	0.63332154	BALL	lure	n/a	n/a	n/a	1
296.25	0.633323711	SOFTBALL	lure	n/a	n/a	n/a	1
296.883	0.633324452	CHEEK	lure	n/a	n/a	n/a	1
297.517	0.483322865	CROSSWALK	lure	n/a	n/a	n/a	1
298	0.450054977	TENACITY	lure	n/a	n/a	n/a	1
298.45	0.566602451	ANTIBODY	lure	n/a	n/a	n/a	1
299.017	0.549985163	MINDER	lure	n/a	n/a	n/a	1
299.567	2.016642209	ROPE	long	n/a	n/a	n/a	1
301.583	0.733383363	SPA	lure	n/a	n/a	n/a	1
302.317	0.633267078	UTILITY	lure	n/a	n/a	n/a	1
302.95	0.433324352	FIASCO	lure	n/a	n/a	n/a	1
303.383	0.583372342	CUTLERY	lure	n/a	n/a	n/a	1
303.967	0.633276958	PILGRIM	lure	n/a	n/a	n/a	1
304.6	0.666654782	ANTITOXIN	lure	n/a	n/a	n/a	1
305.267	0.749991011	DIALOGUE	lure	n/a	n/a	n/a	1
306.017	0.666657421	ACE	lure	n/a	n/a	n/a	1
306.683	0.533381795	CELL	lure	n/a	n/a	n/a	1
307.217	0.766601396	LOOPHOLE	lure	n/a	n/a	n/a	1
307.983	0.36665641	LISTENER	lure	n/a	n/a	n/a	1
308.35	0.616657974	SUDS	short	n/a	n/a	n/a	1
308.967	0.749989792	GALLERY	lure	n/a	n/a	n/a	1
309.716	0.349998837	HANDBALL	lure	n/a	n/a	n/a	1
310.066	0.383319931	INFERENCE	lure	n/a	n/a	n/a	1
310.45	0.616665079	SUNDOWN	lure	n/a	n/a	n/a	1
311.066	0.633382449	STALLION	lure	n/a	n/a	n/a	1
311.7	0.399933602	CAMISOLE	lure	n/a	n/a	n/a	1
312.1	0.516705732	CLOWN	lure	n/a	n/a	n/a	1
312.617	0.71661172	FISHERY	lure	n/a	n/a	n/a	1
313.333	0.633323843	FARCE	lure	n/a	n/a	n/a	1
313.966	0.516714076	WATCHMEN	lure	n/a	n/a	n/a	1
314.483	0.366642724	PREDICATE	lure	n/a	n/a	n/a	1
314.85	0.616621672	EXTRACTION	lure	n/a	n/a	n/a	1
315.466	0.666656997	DOCTRINE	lure	n/a	n/a	n/a	1
316.133	0.799986965	MART	lure	n/a	n/a	n/a	1
316.933	2.016645643	HAMMER	long	n/a	n/a	n/a	1
318.95	0.449983298	VIOLENCE	lure	n/a	n/a	n/a	1
319.4	0.416664856	CANDIDATE	lure	n/a	n/a	n/a	1
319.816	0.699986755	CUPID	lure	n/a	n/a	n/a	1
320.516	0.566660083	GOOGLY	lure	n/a	n/a	n/a	1
321.083	0.433329419	PROSPECT	lure	n/a	n/a	n/a	1
321.516	0.633325429	PIPETTE	lure	n/a	n/a	n/a	1
322.15	0.433322533	CASEWORKER	lure	n/a	n/a	n/a	1
322.583	0.449996011	CHIMP	lure	n/a	n/a	n/a	1
323.033	0.466658128	UNDERTOW	lure	n/a	n/a	n/a	1
323.5	0.749987013	MORSEL	lure	n/a	n/a	n/a	1
324.25	0.399998524	REIN	lure	n/a	n/a	n/a	1
324.65	0.433326818	SNAPSHOT	lure	n/a	n/a	n/a	1
325.083	0.616658424	TUNNEL	short	n/a	n/a	n/a	1
325.7	0.733321871	HOVERCRAFT	lure	n/a	n/a	n/a	1
326.433	0.499994984	TUNIC	lure	n/a	n/a	n/a	1
326.933	0.599989708	SNOOK	lure	n/a	n/a	n/a	1
327.533	0.516660802	COMPETITOR	lure	n/a	n/a	n/a	1
328.05	0.433327104	JOIST	lure	n/a	n/a	n/a	1
328.483	0.566654749	CHESSBOARD	lure	n/a	n/a	n/a	1
329.05	0.683325806	ROYALE	lure	n/a	n/a	n/a	1
329.733	0.333325413	UPSHOT	lure	n/a	n/a	n/a	1
330.066	0.349993662	DOGGY	lure	n/a	n/a	n/a	1
330.416	0.533331545	MELODRAMA	lure	n/a	n/a	n/a	1
330.95	0.733320186	SYMPTOM	lure	n/a	n/a	n/a	1
331.683	0.716662222	TARANTULA	lure	n/a	n/a	n/a	1
332.4	0.466653039	ACTUALITY	lure	n/a	n/a	n/a	1
332.866	2.016643341	LIGHT	long	n/a	n/a	n/a	1
334.883	0.433323258	TECHNOLOGY	lure	n/a	n/a	n/a	1
335.316	0.433328792	GAZER	lure	n/a	n/a	n/a	1
335.749	0.499991836	BANKER	lure	n/a	n/a	n/a	1
336.249	0.433325366	COLLATION	lure	n/a	n/a	n/a	1
336.683	0.483327546	PROGRAMMER	lure	n/a	n/a	n/a	1
337.166	0.516656893	LEGEND	lure	n/a	n/a	n/a	1
337.683	0.43333296	TOOTHBRUSH	lure	n/a	n/a	n/a	1
338.116	0.383325355	DAYBREAK	lure	n/a	n/a	n/a	1
338.499	0.583323681	SODA	lure	n/a	n/a	n/a	1
339.083	0.63332788	REUNION	lure	n/a	n/a	n/a	1
339.716	0.549987847	SUPERMAN	lure	n/a	n/a	n/a	1
340.266	0.516660425	HATCHWAY	lure	n/a	n/a	n/a	1
340.783	0.649993431	TORNADO	lure	n/a	n/a	n/a	1
341.433	1.016692917	PEAR	fruit	n/a	n/a	2	0
342.449	0.616677303	MOURNER	lure	n/a	n/a	n/a	1
343.066	0.383267436	POLYGON	lure	107	2	n/a	0
343.449	0.400058219	SUPREMACY	lure	n/a	n/a	n/a	1
343.849	0.483264726	REVERIE	lure	n/a	n/a	n/a	1
344.333	0.450049862	REFERRAL	lure	n/a	n/a	n/a	1
344.783	0.56659285	SELLOUT	lure	n/a	n/a	n/a	1
345.349	0.316663818	PROWLER	lure	n/a	n/a	n/a	1
345.666	0.716657807	TORRENT	lure	n/a	n/a	n/a	1
346.383	0.616658626	GLASSWARE	lure	n/a	n/a	n/a	1
346.999	0.700387886	FOOTSTEP	lure	n/a	n/a	n/a	1
347.7	0.582925107	METAPHYSIC	lure	n/a	n/a	n/a	1
348.283	0.683404977	ANNOYANCE	lure	n/a	n/a	n/a	1
348.966	0.499916297	CAMEL	lure	n/a	n/a	n/a	1
349.466	0.616654506	MATTER	short	n/a	n/a	n/a	1
350.083	0.449993341	CEDAR	lure	n/a	n/a	n/a	1
350.533	0.566660956	MUSKETEER	lure	n/a	n/a	n/a	1
351.099	0.449993867	HANDLEBAR	lure	n/a	n/a	n/a	1
351.549	0.499991059	POTTER	lure	n/a	n/a	n/a	1
352.049	0.683323666	ADVENT	lure	n/a	n/a	n/a	1
352.733	0.366660799	MISDEAL	lure	n/a	n/a	n/a	1
353.099	0.467139185	TEn/aCY	lure	n/a	n/a	n/a	1
353.566	0.582848786	FEAT	lure	n/a	n/a	n/a	1
354.149	0.500051314	SOLIDARITY	lure	n/a	n/a	n/a	1
354.649	0.533268252	PIPER	lure	n/a	n/a	n/a	1
355.183	0.399989963	BOYFRIEND	lure	n/a	n/a	n/a	1
355.583	0.666706064	MARCHER	lure	n/a	n/a	n/a	1
356.249	0.56661356	CONSCIENCE	lure	n/a	n/a	n/a	1
356.816	0.749986176	PROMOTER	lure	n/a	n/a	n/a	1
357.566	0.549991423	WINDFALL	lure	n/a	n/a	n/a	1
358.116	0.616719939	CURTAIN	short	n/a	n/a	n/a	1
358.733	0.349933145	ASTRODOME	lure	n/a	n/a	n/a	1
359.082	0.58332737	EXPEDIENCY	lure	n/a	n/a	n/a	1
359.666	0.549989376	CEREBELLUM	lure	n/a	n/a	n/a	1
360.216	0.58338741	SPEEDBOAT	lure	n/a	n/a	n/a	1
360.799	0.616597573	INNOVATION	lure	n/a	n/a	n/a	1
361.416	0.616655931	HANGMAN	lure	n/a	n/a	n/a	1
362.032	0.433328381	DEFINITION	lure	n/a	n/a	n/a	1
362.466	0.433325291	SCHOLAR	lure	n/a	n/a	n/a	1
362.899	0.450056073	JUDGMENT	lure	n/a	n/a	n/a	1
363.349	0.504362583	CLERGYMEN	lure	n/a	n/a	n/a	1
363.853	0.445566801	TEETH	lure	n/a	n/a	n/a	1
364.299	0.566652458	COWBELL	lure	n/a	n/a	n/a	1
364.866	0.483328125	WINDOWSILL	lure	n/a	n/a	n/a	1
365.349	0.366724809	CAMPFIRE	lure	n/a	n/a	n/a	1
365.716	0.333380186	TURBAN	lure	n/a	n/a	n/a	1
366.049	0.766539425	MARIGOLD	lure	n/a	n/a	n/a	1
366.816	2.018742513	DIRT	long	n/a	n/a	n/a	1
368.834	0.647886166	PUZZLEMENT	lure	n/a	n/a	n/a	1
369.482	0.633325946	CORVETTE	lure	n/a	n/a	n/a	1
370.116	0.616717515	TONGUE	lure	n/a	n/a	n/a	1
370.732	0.599928192	CATERER	lure	n/a	n/a	n/a	1
371.332	0.366662459	MONSTER	lure	n/a	n/a	n/a	1
371.699	0.733324799	WARDEN	lure	n/a	n/a	n/a	1
372.432	0.449994589	BULKHEAD	lure	n/a	n/a	n/a	1
372.882	0.366663059	GUNSLINGER	lure	n/a	n/a	n/a	1
373.249	0.48332706	LIZARD	lure	n/a	n/a	n/a	1
373.732	0.43332409	INCENTIVE	lure	n/a	n/a	n/a	1
374.166	0.750026281	STIGMA	lure	n/a	n/a	n/a	1
374.916	0.600022887	RIGIDITY	lure	n/a	n/a	n/a	1
375.516	1.016584899	PEACH	fruit	n/a	n/a	2	0
376.532	0.650037819	OUTBURST	lure	26	2	n/a	0
377.182	0.383341927	BLOTCH	lure	n/a	n/a	n/a	1
377.566	0.349930917	PUSHCART	lure	n/a	n/a	n/a	1
377.916	0.433329582	COURTYARD	lure	n/a	n/a	n/a	1
378.349	0.416660614	LIGHTHOUSE	lure	n/a	n/a	n/a	1
378.766	0.499988485	OXIDATION	lure	n/a	n/a	n/a	1
379.265	0.569073622	MIDSUMMER	lure	n/a	n/a	n/a	1
379.835	0.430914814	GAL	lure	n/a	n/a	n/a	1
380.265	0.51672561	CHROME	lure	n/a	n/a	n/a	1
380.782	0.73331651	OPENER	lure	n/a	n/a	n/a	1
381.516	0.733257716	DEN	lure	n/a	n/a	n/a	1
382.249	0.666666192	GRANDMA	lure	n/a	n/a	n/a	1
382.915	0.666662401	EYEPIECE	lure	n/a	n/a	n/a	1
383.582	0.616648431	SCREEN	short	n/a	n/a	n/a	1
384.199	0.416660814	SUCCESSOR	lure	n/a	n/a	n/a	1
384.615	0.56665914	CHEMIST	lure	n/a	n/a	n/a	1
385.182	0.350060044	PAPRIKA	lure	n/a	n/a	n/a	1
385.532	0.76658981	PREMIUM	lure	n/a	n/a	n/a	1
386.299	0.767869774	ABILITY	lure	n/a	n/a	n/a	1
387.067	0.73211126	HEMISPHERE	lure	n/a	n/a	n/a	1
387.799	0.549990188	THIRST	lure	n/a	n/a	n/a	1
388.349	0.483328312	GIBBERISH	lure	n/a	n/a	n/a	1
388.832	0.666654878	SEDGE	lure	n/a	n/a	n/a	1
389.499	0.699988763	LEGION	lure	n/a	n/a	n/a	1
390.199	0.699992187	ATTIRE	lure	n/a	n/a	n/a	1
390.899	0.400052726	BUFFET	lure	n/a	n/a	n/a	1
391.299	0.399934607	JELLO	lure	n/a	n/a	n/a	1
391.699	0.649986983	SANDPAPER	short	n/a	n/a	n/a	1
392.349	0.666665985	CENTURY	lure	n/a	n/a	n/a	1
393.015	0.316767067	TORMENT	lure	n/a	n/a	n/a	1
393.332	0.316554039	SWORDPLAY	lure	n/a	n/a	n/a	1
393.649	0.449996854	PROCURATOR	lure	n/a	n/a	n/a	1
394.099	0.616718142	FIXATION	lure	n/a	n/a	n/a	1
394.715	0.649924865	COASTGUARD	lure	n/a	n/a	n/a	1
395.365	0.716661001	TOMCAT	lure	n/a	n/a	n/a	1
396.082	0.650044579	BATH	lure	n/a	n/a	n/a	1
396.732	0.366704264	CADET	lure	n/a	n/a	n/a	1
397.099	0.766554748	VIGILANCE	lure	n/a	n/a	n/a	1
397.865	0.566660318	HAIRBRUSH	lure	n/a	n/a	n/a	1
398.432	0.549991123	CRITERION	lure	n/a	n/a	n/a	1
398.982	0.566660845	SCAPEGOAT	lure	n/a	n/a	n/a	1
399.549	0.333380198	CROSSBOW	lure	n/a	n/a	n/a	1
399.882	2.016587109	TRUCK	long	n/a	n/a	n/a	1
401.899	0.766651761	PLAYOFF	lure	n/a	n/a	n/a	1
402.665	0.433390521	SPOTLIGHT	lure	n/a	n/a	n/a	1
403.099	0.34993142	EULOGY	lure	n/a	n/a	n/a	1
403.448	0.483328572	BEHOLDER	lure	n/a	n/a	n/a	1
403.932	0.583322457	ALDERMEN	lure	n/a	n/a	n/a	1
404.515	0.3167484	OUTFIELDER	lure	n/a	n/a	n/a	1
404.832	0.651624957	CHANDELIER	lure	n/a	n/a	n/a	1
405.484	0.714940296	DECREASE	lure	n/a	n/a	n/a	1
406.198	0.616650312	BEARSKIN	lure	n/a	n/a	n/a	1
406.815	0.649994404	WASHOUT	lure	n/a	n/a	n/a	1
407.465	0.566658333	HANDSAW	lure	n/a	n/a	n/a	1
408.032	0.616783508	PYRAMID	short	n/a	n/a	n/a	1
408.649	0.466537242	PAINTER	lure	n/a	n/a	n/a	1
409.115	0.666739481	NEWSLETTER	lure	n/a	n/a	n/a	1
409.782	0.666568636	HEALTH	lure	n/a	n/a	n/a	1
410.448	0.533325946	CALLER	lure	n/a	n/a	n/a	1
410.982	0.66666185	GAGE	lure	n/a	n/a	n/a	1
411.648	0.633319185	FOGHORN	lure	n/a	n/a	n/a	1
412.282	0.449996963	TORSO	lure	n/a	n/a	n/a	1
412.732	0.316700474	CIGAR	lure	n/a	n/a	n/a	1
413.048	0.633329249	KITCHEN	lure	n/a	n/a	n/a	1
413.682	0.599949676	PORCUPINE	lure	n/a	n/a	n/a	1
414.282	0.666656649	GUNBOAT	lure	n/a	n/a	n/a	1
414.948	0.349992518	SABLE	lure	n/a	n/a	n/a	1
415.298	0.64999395	WHISKEY	lure	n/a	n/a	n/a	1
415.948	0.399992468	REVEREND	lure	n/a	n/a	n/a	1
416.348	1.01671633	PINEAPPLE	fruit	721	2	2	1
417.365	0.649930146	INFLOW	lure	n/a	n/a	n/a	1
418.015	0.403422174	PARAMETER	lure	n/a	n/a	n/a	1
418.418	0.679894295	SAGEBRUSH	lure	n/a	n/a	n/a	1
419.098	0.449992037	TIDBIT	lure	n/a	n/a	n/a	1
419.548	0.750052121	ALABASTER	lure	n/a	n/a	n/a	1
420.298	0.64992669	BROADSWORD	lure	n/a	n/a	n/a	1
420.948	0.466719546	REBOUND	lure	n/a	n/a	n/a	1
421.415	0.716660535	NUMERATION	lure	n/a	n/a	n/a	1
422.132	0.333264128	MENTALITY	lure	n/a	n/a	n/a	1
422.465	0.666656629	SHILLING	lure	n/a	n/a	n/a	1
423.132	0.583330433	SUn/aOOF	lure	n/a	n/a	n/a	1
423.715	0.766655306	TANGENCY	lure	n/a	n/a	n/a	1
424.482	2.01744384	BUBBLE	long	n/a	n/a	n/a	1
426.499	0.399185285	MORALITY	lure	n/a	n/a	n/a	1
426.898	0.733322197	BASILICA	lure	n/a	n/a	n/a	1
427.631	0.64999099	COMMENTARY	lure	n/a	n/a	n/a	1
428.281	0.549992316	CHANCELLOR	lure	n/a	n/a	n/a	1
428.831	0.799986879	WOODWIND	lure	n/a	n/a	n/a	1
429.631	0.583323255	COMPANION	lure	n/a	n/a	n/a	1
430.215	0.399999723	YACHT	lure	n/a	n/a	n/a	1
430.615	0.333327892	EXPLORER	lure	n/a	n/a	n/a	1
430.948	0.566657975	ILLUSION	lure	n/a	n/a	n/a	1
431.515	0.583319343	NAUGHT	lure	n/a	n/a	n/a	1
432.098	0.549997616	RAZZLE	lure	n/a	n/a	n/a	1
432.648	0.616651728	DENT	short	n/a	n/a	n/a	1
433.265	0.483330864	GUNPOWDER	lure	n/a	n/a	n/a	1
433.748	0.566657471	GALLANTRY	lure	n/a	n/a	n/a	1
434.315	0.549993554	VERDICT	lure	n/a	n/a	n/a	1
434.865	0.716657044	PENALTY	lure	n/a	n/a	n/a	1
435.581	0.499990943	ALBINO	lure	n/a	n/a	n/a	1
436.081	0.566657955	HARVESTER	lure	n/a	n/a	n/a	1
436.648	0.316662514	KILT	lure	n/a	n/a	n/a	1
436.965	0.666659594	PILGRIMAGE	lure	n/a	n/a	n/a	1
437.631	0.583323275	POLLEN	lure	n/a	n/a	n/a	1
438.215	0.383329598	UNISON	lure	n/a	n/a	n/a	1
438.598	0.416658469	WRITER	lure	n/a	n/a	n/a	1
439.015	0.549993654	EYELID	lure	n/a	n/a	n/a	1
439.565	0.58332505	THROAT	lure	n/a	n/a	n/a	1
440.148	0.366661671	MAMBA	lure	n/a	n/a	n/a	1
440.515	0.649989359	ABRIDGMENT	lure	n/a	n/a	n/a	1
441.165	1.016654979	PINEAPPLE	fruit	634	2	2	1
442.181	0.683323218	GENEROSITY	lure	n/a	n/a	n/a	1
442.865	0.649987965	LATTER	lure	n/a	n/a	n/a	1
443.515	0.466660924	COMPOSER	lure	n/a	n/a	n/a	1
443.981	0.766653856	MACE	lure	n/a	n/a	n/a	1
444.748	0.63332516	PUDDLE	lure	n/a	n/a	n/a	1
445.381	0.466658992	BOOKSTALL	lure	n/a	n/a	n/a	1
445.848	0.450054887	WHIRLWIND	lure	n/a	n/a	n/a	1
446.298	0.633268901	PESSIMISM	lure	n/a	n/a	n/a	1
446.931	0.699986508	LOTTO	lure	n/a	n/a	n/a	1
447.631	0.46671446	LOFT	lure	n/a	n/a	n/a	1
448.098	0.734436832	NEWSREADER	lure	n/a	n/a	n/a	1
448.832	0.5995707	VINEYARD	lure	n/a	n/a	n/a	1
449.432	2.018593219	BUCKLE	long	n/a	n/a	n/a	1
451.451	0.363957817	TRUANCY	lure	n/a	n/a	n/a	1
451.814	0.666656684	DOUGHNUT	lure	n/a	n/a	n/a	1
452.481	0.533376767	DIVINATION	lure	n/a	n/a	n/a	1
453.014	0.483272694	MODE	lure	n/a	n/a	n/a	1
453.498	0.416758983	PRIESTHOOD	lure	n/a	n/a	n/a	1
453.915	0.3999008	CLIFF	lure	n/a	n/a	n/a	1
454.314	0.383327636	CASEBOOK	lure	n/a	n/a	n/a	1
454.698	0.73332162	SISTERHOOD	lure	n/a	n/a	n/a	1
455.431	0.700034568	LUGGAGE	lure	n/a	n/a	n/a	1
456.131	0.483281109	DONKEY	lure	n/a	n/a	n/a	1
456.614	0.53332658	FOOTBOARD	lure	n/a	n/a	n/a	1
457.148	0.399995419	URETHRA	lure	n/a	n/a	n/a	1
457.548	0.316707552	IMPEDIMENT	lure	n/a	n/a	n/a	1
457.864	0.516611362	FATSO	lure	n/a	n/a	n/a	1
458.381	0.633362286	PLAINTIFF	lure	n/a	n/a	n/a	1
459.014	0.749952347	REVELRY	lure	n/a	n/a	n/a	1
459.764	0.499987751	BUSYBODY	lure	n/a	n/a	n/a	1
460.264	0.483332728	CROSSWIND	lure	n/a	n/a	n/a	1
460.748	0.566655049	PERSONNEL	lure	n/a	n/a	n/a	1
461.314	0.616658345	FROG	lure	n/a	n/a	n/a	1
461.931	0.4833258	RECITAL	lure	n/a	n/a	n/a	1
462.414	0.349991925	COSMOLOGY	lure	n/a	n/a	n/a	1
462.764	0.683328201	WICKERWORK	lure	n/a	n/a	n/a	1
463.448	0.616656855	GROUNDSMAN	lure	n/a	n/a	n/a	1
464.064	0.749994051	REDNECK	lure	n/a	n/a	n/a	1
464.814	n/a	GRADER	lure	n/a	n/a	n/a	1