onset	duration	stim	cond	RT	resp	cresp	acc
4.046	0.566662398	NAMESAKE	lure	n/a	n/a	n/a	1
4.613	0.449997539	HENCHMEN	lure	n/a	n/a	n/a	1
5.063	0.36665934	PROBATE	lure	n/a	n/a	n/a	1
5.43	0.666655987	UPPERCUT	lure	n/a	n/a	n/a	1
6.096	0.38333037	OPPOSITION	lure	n/a	n/a	n/a	1
6.48	0.449994632	GRAIN	lure	n/a	n/a	n/a	1
6.93	0.64998889	TAVERN	lure	n/a	n/a	n/a	1
7.58	0.583321133	SUBMERSION	lure	n/a	n/a	n/a	1
8.163	1.016658282	BLACKBERRY	fruit	603	2	2	1
9.18	0.399991777	COLLATERAL	lure	n/a	n/a	n/a	1
9.58	0.751953904	BOARDROOM	lure	n/a	n/a	n/a	1
10.331	0.381363925	MELANCHOLY	lure	n/a	n/a	n/a	1
10.713	0.699991922	AMNESTY	lure	n/a	n/a	n/a	1
11.413	0.383329488	CHECKUP	lure	n/a	n/a	n/a	1
11.796	0.366655674	FROG	lure	n/a	n/a	n/a	1
12.163	0.449993936	RAVEL	lure	n/a	n/a	n/a	1
12.613	0.749994908	SWORDPLAY	lure	n/a	n/a	n/a	1
13.363	0.649989612	SUBSPACE	lure	n/a	n/a	n/a	1
14.013	0.766657692	DIPHTHERIA	lure	n/a	n/a	n/a	1
14.779	0.733320051	GLIDER	lure	n/a	n/a	n/a	1
15.513	0.683326995	BUREAU	lure	n/a	n/a	n/a	1
16.196	0.549989046	KNOTHOLE	lure	n/a	n/a	n/a	1
16.746	2.016642269	LABEL	long	n/a	n/a	n/a	1
18.763	0.516659489	MAGICIAN	lure	n/a	n/a	n/a	1
19.279	0.5333223	KEYSTONE	lure	n/a	n/a	n/a	1
19.813	0.449998291	INVASION	lure	n/a	n/a	n/a	1
20.263	0.583318086	DYNAMITE	lure	n/a	n/a	n/a	1
20.846	0.666661772	TEPEE	lure	n/a	n/a	n/a	1
21.513	0.350401215	CHURCH	lure	n/a	n/a	n/a	1
21.863	0.666251571	BOMBSIGHT	lure	n/a	n/a	n/a	1
22.529	0.31666357	EMBLEM	lure	n/a	n/a	n/a	1
22.846	0.416660496	DISTORTION	lure	n/a	n/a	n/a	1
23.263	0.749987416	AUNTIE	lure	n/a	n/a	n/a	1
24.013	0.466663209	PASSAGEWAY	lure	n/a	n/a	n/a	1
24.479	0.500111954	YEARLING	lure	n/a	n/a	n/a	1
24.979	2.016520227	PHOTO	long	n/a	n/a	n/a	1
26.996	0.749989118	MYTHOLOGY	lure	n/a	n/a	n/a	1
27.746	0.616698288	GIRTH	lure	n/a	n/a	n/a	1
28.363	0.616615942	INSIGNIA	lure	n/a	n/a	n/a	1
28.979	0.46666388	REFRACTION	lure	n/a	n/a	n/a	1
29.446	0.566655972	VERTEBRAE	lure	n/a	n/a	n/a	1
30.013	0.333367518	BLACKBOARD	lure	n/a	n/a	n/a	1
30.346	0.616620786	NECKLINE	lure	n/a	n/a	n/a	1
30.963	0.499992061	BREAKER	lure	n/a	n/a	n/a	1
31.463	0.616655723	POTHOLE	lure	n/a	n/a	n/a	1
32.079	0.466663431	POPPYCOCK	lure	n/a	n/a	n/a	1
32.546	0.483326598	SOLITAIRE	lure	n/a	n/a	n/a	1
33.029	0.666657489	PROCESSION	lure	n/a	n/a	n/a	1
33.696	1.016648319	PEAR	fruit	630	2	2	1
34.712	0.616661927	DARKROOM	lure	n/a	n/a	n/a	1
35.329	0.401418351	CORNEA	lure	n/a	n/a	n/a	1
35.731	0.398610175	RHAPSODY	lure	n/a	n/a	n/a	1
36.129	0.39994991	JOIST	lure	n/a	n/a	n/a	1
36.529	0.616663776	NECKWEAR	lure	n/a	n/a	n/a	1
37.146	0.399992349	SOMEBODY	lure	n/a	n/a	n/a	1
37.546	0.699992744	STREAKER	lure	n/a	n/a	n/a	1
38.246	0.633324329	BASKET	lure	n/a	n/a	n/a	1
38.879	0.416656536	WRISTWATCH	lure	n/a	n/a	n/a	1
39.296	0.683322487	BUSTLE	lure	n/a	n/a	n/a	1
39.979	0.616662256	EFFICACY	lure	n/a	n/a	n/a	1
40.596	0.583321415	PASSERBY	lure	n/a	n/a	n/a	1
41.179	0.633329367	ICEHOUSE	lure	n/a	n/a	n/a	1
41.812	0.616656965	PLANK	short	n/a	n/a	n/a	1
42.429	0.666659748	VAMPIRE	lure	n/a	n/a	n/a	1
43.096	0.399988417	CARTWHEEL	lure	n/a	n/a	n/a	1
43.496	0.549992624	TRIBUTE	lure	n/a	n/a	n/a	1
44.046	0.633330069	FENDER	lure	n/a	n/a	n/a	1
44.679	0.599987748	FANTASY	lure	n/a	n/a	n/a	1
45.279	0.533329928	AURA	lure	n/a	n/a	n/a	1
45.812	0.766655306	PULPIT	lure	n/a	n/a	n/a	1
46.579	0.74998859	SERGE	lure	n/a	n/a	n/a	1
47.329	0.466662072	PEW	lure	n/a	n/a	n/a	1
47.796	0.616658159	PARADOX	lure	n/a	n/a	n/a	1
48.412	0.583323816	DATA	lure	n/a	n/a	n/a	1
48.996	0.533325093	VALLEY	lure	n/a	n/a	n/a	1
49.529	0.64999032	CONTROLLER	lure	n/a	n/a	n/a	1
50.179	0.616659288	BROOM	short	n/a	n/a	n/a	1
50.796	0.737220581	YAM	lure	n/a	n/a	n/a	1
51.533	0.39956165	HOSPITAL	lure	n/a	n/a	n/a	1
51.932	0.379863685	OLIGARCHY	lure	n/a	n/a	n/a	1
52.312	0.433328872	PORTFOLIO	lure	n/a	n/a	n/a	1
52.746	0.749990201	MINUTEMEN	lure	n/a	n/a	n/a	1
53.496	0.316659706	FOOTBALL	lure	n/a	n/a	n/a	1
53.812	0.499993327	KARATE	lure	n/a	n/a	n/a	1
54.312	0.416657711	SEAWATER	lure	n/a	n/a	n/a	1
54.729	0.616662097	CEREBRUM	lure	n/a	n/a	n/a	1
55.346	0.499992159	STRUDEL	lure	n/a	n/a	n/a	1
55.846	0.733325201	OKRA	lure	n/a	n/a	n/a	1
56.579	0.666654677	GEOGRAPHER	lure	n/a	n/a	n/a	1
57.246	0.783323511	CULTIST	lure	n/a	n/a	n/a	1
58.029	0.686792544	HAIRCUT	lure	n/a	n/a	n/a	1
58.716	1.014575333	BLACKBERRY	fruit	554	2	2	1
59.73	0.50055983	EXCURSION	lure	n/a	n/a	n/a	1
60.231	0.314700574	BOULEVARD	lure	n/a	n/a	n/a	1
60.545	0.649996695	GUNPOWDER	lure	n/a	n/a	n/a	1
61.195	0.316656514	SYNC	lure	n/a	n/a	n/a	1
61.512	0.599994618	STATUE	lure	n/a	n/a	n/a	1
62.112	0.3333258	PAPERBACK	lure	n/a	n/a	n/a	1
62.445	0.383333863	ANTHILL	lure	n/a	n/a	n/a	1
62.829	0.783320644	GREYBEARD	lure	n/a	n/a	n/a	1
63.612	0.433329256	COMBUSTION	lure	n/a	n/a	n/a	1
64.045	0.433327384	DELICACY	lure	n/a	n/a	n/a	1
64.479	0.333322859	PSYCHOLOGY	lure	n/a	n/a	n/a	1
64.812	0.466665945	CAUSATION	lure	n/a	n/a	n/a	1
65.279	0.666655458	CROCKERY	lure	n/a	n/a	n/a	1
65.945	0.433327138	SOFTY	lure	n/a	n/a	n/a	1
66.379	0.683325043	HEADROOM	lure	n/a	n/a	n/a	1
67.062	0.616652773	ORNAMENT	short	n/a	n/a	n/a	1
67.679	0.499996943	REDUCER	lure	n/a	n/a	n/a	1
68.179	0.483327473	SEAGULL	lure	n/a	n/a	n/a	1
68.662	0.633323191	MICE	lure	n/a	n/a	n/a	1
69.295	0.533329514	MESSENGER	lure	n/a	n/a	n/a	1
69.829	0.383327092	REVISION	lure	n/a	n/a	n/a	1
70.212	0.416658254	PISTOL	lure	n/a	n/a	n/a	1
70.629	0.733320517	TURNIP	lure	n/a	n/a	n/a	1
71.362	0.366725255	SIMULATION	lure	n/a	n/a	n/a	1
71.729	0.416603457	SLEW	lure	n/a	n/a	n/a	1
72.145	0.416655191	WHITECAP	lure	n/a	n/a	n/a	1
72.562	0.587170819	ZENITH	lure	n/a	n/a	n/a	1
73.149	0.696150563	PACIFIER	lure	n/a	n/a	n/a	1
73.845	0.633320472	TRUCE	lure	n/a	n/a	n/a	1
74.479	0.416708927	WOMANKIND	lure	n/a	n/a	n/a	1
74.895	0.749945352	TURNCOAT	lure	n/a	n/a	n/a	1
75.645	0.616652556	RIDGE	short	n/a	n/a	n/a	1
76.262	0.650033056	DECOR	lure	n/a	n/a	n/a	1
76.912	0.549957091	PENINSULA	lure	n/a	n/a	n/a	1
77.462	0.44999292	CURD	lure	n/a	n/a	n/a	1
77.912	0.549992827	RETRIEVER	lure	n/a	n/a	n/a	1
78.462	0.566652768	STOWAWAY	lure	n/a	n/a	n/a	1
79.029	0.699994071	SPILLWAY	lure	n/a	n/a	n/a	1
79.729	0.703407516	MIDDLEMAN	lure	n/a	n/a	n/a	1
80.432	0.379913557	FAITH	lure	n/a	n/a	n/a	1
80.812	0.633318235	CREATOR	lure	n/a	n/a	n/a	1
81.445	0.333333555	EGGPLANT	lure	n/a	n/a	n/a	1
81.779	0.366658925	TANG	lure	n/a	n/a	n/a	1
82.145	0.449994862	STAIRWAY	lure	n/a	n/a	n/a	1
82.595	0.416657837	FOUNDLING	lure	n/a	n/a	n/a	1
83.012	0.350000839	SONGBIRD	lure	n/a	n/a	n/a	1
83.362	0.333329682	SPANGLE	lure	n/a	n/a	n/a	1
83.695	1.066648319	PEACH	fruit	615	2	2	1
84.762	0.399997267	WARHORSE	lure	n/a	n/a	n/a	1
85.162	0.600029451	TUBA	lure	n/a	n/a	n/a	1
85.762	0.683280194	En/aICHMENT	lure	n/a	n/a	n/a	1
86.445	0.616664367	COUNSELLOR	lure	n/a	n/a	n/a	1
87.062	0.716650791	UNDERWEAR	lure	n/a	n/a	n/a	1
87.778	0.449993732	THRILLER	lure	n/a	n/a	n/a	1
88.228	0.549992339	BABOON	lure	n/a	n/a	n/a	1
88.778	0.549995596	NITRATE	lure	n/a	n/a	n/a	1
89.328	0.63332792	PATTY	lure	n/a	n/a	n/a	1
89.962	0.416716928	KITCHEN	lure	n/a	n/a	n/a	1
90.378	0.616595568	CRUCIBLE	lure	n/a	n/a	n/a	1
90.995	0.633330599	DECADE	lure	n/a	n/a	n/a	1
91.628	0.383322282	SONAR	lure	n/a	n/a	n/a	1
92.012	2.016642734	WAGON	long	n/a	n/a	n/a	1
94.028	0.383329931	ACETONE	lure	n/a	n/a	n/a	1
94.412	0.333326061	OVERKILL	lure	n/a	n/a	n/a	1
94.745	0.716653854	SIDEKICK	lure	n/a	n/a	n/a	1
95.462	0.533325886	BOUTIQUE	lure	n/a	n/a	n/a	1
95.995	0.616664342	TUXEDO	lure	n/a	n/a	n/a	1
96.612	0.783320241	HANGOVER	lure	n/a	n/a	n/a	1
97.395	0.616654432	ACCOMPLICE	lure	n/a	n/a	n/a	1
98.012	0.699995756	IVORY	lure	n/a	n/a	n/a	1
98.712	0.616652228	HEARTBURN	lure	n/a	n/a	n/a	1
99.328	0.466665452	BLOCKHOUSE	lure	n/a	n/a	n/a	1
99.795	0.349994653	ADVISOR	lure	n/a	n/a	n/a	1
100.145	2.016635129	LIGHT	long	n/a	n/a	n/a	1
102.162	0.533325305	SHIRT	lure	n/a	n/a	n/a	1
102.695	0.583325194	ALLERGY	lure	n/a	n/a	n/a	1
103.278	0.69999689	CHALLENGER	lure	n/a	n/a	n/a	1
103.978	0.616655916	RESISTOR	lure	n/a	n/a	n/a	1
104.595	0.333330371	RIFF	lure	n/a	n/a	n/a	1
104.928	0.670755346	PROVIDER	lure	n/a	n/a	n/a	1
105.599	0.479227332	CORDUROY	lure	n/a	n/a	n/a	1
106.078	0.449989564	LIFEBLOOD	lure	n/a	n/a	n/a	1
106.528	0.36666736	SPECK	lure	n/a	n/a	n/a	1
106.895	0.499993229	SINNER	lure	n/a	n/a	n/a	1
107.395	0.349989094	PROJECTILE	lure	n/a	n/a	n/a	1
107.745	0.53336855	LAGOON	lure	n/a	n/a	n/a	1
108.278	1.017670236	GRAPEFRUIT	fruit	776	2	2	1
109.296	0.432270787	BUTCHERY	lure	n/a	n/a	n/a	1
109.728	0.4499961	EMPEROR	lure	n/a	n/a	n/a	1
110.178	0.549986625	WICKERWORK	lure	n/a	n/a	n/a	1
110.728	0.71665687	TRAINMAN	lure	n/a	n/a	n/a	1
111.445	0.316662093	HAMLET	lure	n/a	n/a	n/a	1
111.761	0.349995005	PROTECTION	lure	n/a	n/a	n/a	1
112.111	0.416661401	AEROSPACE	lure	n/a	n/a	n/a	1
112.528	0.366667258	WARMTH	lure	n/a	n/a	n/a	1
112.895	0.483320803	DOOR	lure	n/a	n/a	n/a	1
113.378	0.733328558	JASMINE	lure	n/a	n/a	n/a	1
114.111	0.749988897	BADMINTON	lure	n/a	n/a	n/a	1
114.861	0.383371962	COMMITTAL	lure	n/a	n/a	n/a	1
115.245	0.351546796	HESITANCE	lure	n/a	n/a	n/a	1
115.596	0.701572085	MUG	lure	n/a	n/a	n/a	1
116.298	0.517564557	OVERLORD	lure	n/a	n/a	n/a	1
116.815	0.61556746	MATTER	short	n/a	n/a	n/a	1
117.431	0.516565442	HAIRNET	lure	n/a	n/a	n/a	1
117.948	0.71856942	FUNFAIR	lure	n/a	n/a	n/a	1
118.666	0.428513992	TURNOUT	lure	n/a	n/a	n/a	1
119.095	0.53332474	RULER	lure	n/a	n/a	n/a	1
119.628	0.799993476	CROISSANT	lure	n/a	n/a	n/a	1
120.428	0.650040316	HATCHWAY	lure	n/a	n/a	n/a	1
121.078	0.549988348	BLADE	lure	n/a	n/a	n/a	1
121.628	0.666613897	FARMHOUSE	lure	n/a	n/a	n/a	1
122.295	0.449992058	CAFFEINE	lure	n/a	n/a	n/a	1
122.745	0.416659793	OBEDIENCE	lure	n/a	n/a	n/a	1
123.161	0.499989704	CONSTRAINT	lure	n/a	n/a	n/a	1
123.661	0.500045332	THISTLE	lure	n/a	n/a	n/a	1
124.161	0.583317939	DELEGATE	lure	n/a	n/a	n/a	1
124.745	2.016601254	CENT	long	n/a	n/a	n/a	1
126.761	0.366659633	FEEDER	lure	n/a	n/a	n/a	1
127.128	0.649990965	PALLET	lure	n/a	n/a	n/a	1
127.778	0.633325635	HOGSHEAD	lure	n/a	n/a	n/a	1
128.411	0.383321995	RAPPORT	lure	n/a	n/a	n/a	1
128.795	0.51666514	DOCTORATE	lure	n/a	n/a	n/a	1
129.311	0.499993663	LOON	lure	n/a	n/a	n/a	1
129.811	0.599984712	CELLIST	lure	n/a	n/a	n/a	1
130.411	0.583326283	SHRINE	lure	n/a	n/a	n/a	1
130.994	0.516661161	BAZAAR	lure	n/a	n/a	n/a	1
131.511	0.499994742	HUNCHBACK	lure	n/a	n/a	n/a	1
132.011	0.450052742	FISSURE	lure	n/a	n/a	n/a	1
132.461	1.016902755	GRAPEFRUIT	fruit	625	2	2	1
133.478	0.416354578	DEMON	lure	n/a	n/a	n/a	1
133.894	0.733321532	TEASER	lure	n/a	n/a	n/a	1
134.628	0.616653988	COMPETENCY	lure	n/a	n/a	n/a	1
135.244	0.666662996	OPTICIAN	lure	n/a	n/a	n/a	1
135.911	0.716654071	GOBLIN	lure	n/a	n/a	n/a	1
136.628	0.60125639	SNOWSHOE	lure	n/a	n/a	n/a	1
137.229	0.53206236	SUNTAN	lure	n/a	n/a	n/a	1
137.761	0.520074437	PERMAFROST	lure	n/a	n/a	n/a	1
138.281	0.763241811	OUTPOST	lure	n/a	n/a	n/a	1
139.044	0.650044225	ARMOR	lure	n/a	n/a	n/a	1
139.694	0.349994012	ANYBODY	lure	n/a	n/a	n/a	1
140.044	0.683325569	TEARDROP	lure	n/a	n/a	n/a	1
140.728	0.61660266	PANEL	short	n/a	n/a	n/a	1
141.344	0.566714292	RIFLEMEN	lure	n/a	n/a	n/a	1
141.911	0.499934773	COURTSHIP	lure	n/a	n/a	n/a	1
142.411	0.666663406	MISDEAL	lure	n/a	n/a	n/a	1
143.078	0.41669602	DOCILITY	lure	n/a	n/a	n/a	1
143.494	0.56662208	PROSECUTOR	lure	n/a	n/a	n/a	1
144.061	0.699991684	FOXHOLE	lure	n/a	n/a	n/a	1
144.761	0.383326853	BANKRUPTCY	lure	n/a	n/a	n/a	1
145.144	0.733364492	RACQUET	lure	n/a	n/a	n/a	1
145.878	0.716614363	ROCKETRY	lure	n/a	n/a	n/a	1
146.594	0.666710678	COMPILER	lure	n/a	n/a	n/a	1
147.261	0.599937299	TOPCOAT	lure	n/a	n/a	n/a	1
147.861	0.699994459	SWEEPER	lure	n/a	n/a	n/a	1
148.561	0.38336683	SENDER	lure	n/a	n/a	n/a	1
148.944	0.616612525	ROCK	short	n/a	n/a	n/a	1
149.561	0.666661692	ANYTHING	lure	n/a	n/a	n/a	1
150.228	0.716720829	DAREDEVIL	lure	n/a	n/a	n/a	1
150.944	0.48326542	PREMIERE	lure	n/a	n/a	n/a	1
151.428	0.649990259	CRAFTSMAN	lure	n/a	n/a	n/a	1
152.078	0.516711873	EARPHONE	lure	n/a	n/a	n/a	1
152.594	0.333275897	CASEBOOK	lure	n/a	n/a	n/a	1
152.928	0.533386459	GOO	lure	n/a	n/a	n/a	1
153.461	0.366598892	SCANDAL	lure	n/a	n/a	n/a	1
153.828	0.366711624	IMPLOSION	lure	n/a	n/a	n/a	1
154.194	0.433279468	PREFERENCE	lure	n/a	n/a	n/a	1
154.628	0.616658821	BRILLIANCE	lure	n/a	n/a	n/a	1
155.244	0.483325177	STROLLER	lure	n/a	n/a	n/a	1
155.727	0.450047228	MOTORCADE	lure	n/a	n/a	n/a	1
156.178	0.383314619	HESITATION	lure	n/a	n/a	n/a	1
156.561	0.599952529	WARLOCK	lure	n/a	n/a	n/a	1
157.161	2.01664043	BELL	long	n/a	n/a	n/a	1
159.177	0.699988701	CROPPER	lure	n/a	n/a	n/a	1
159.877	0.749990357	COMEDOWN	lure	n/a	n/a	n/a	1
160.627	0.366656371	CAPTIVITY	lure	n/a	n/a	n/a	1
160.994	0.533331521	SCRUBBER	lure	n/a	n/a	n/a	1
161.527	0.349993716	SQUALL	lure	n/a	n/a	n/a	1
161.877	0.501491779	MOTHERLAND	lure	n/a	n/a	n/a	1
162.379	0.36516045	LITERACY	lure	n/a	n/a	n/a	1
162.744	0.517191241	LEMONADE	lure	n/a	n/a	n/a	1
163.261	0.716128989	TIER	lure	n/a	n/a	n/a	1
163.977	0.483326535	GAMEKEEPER	lure	n/a	n/a	n/a	1
164.461	0.749987175	BARITONE	lure	n/a	n/a	n/a	1
165.211	0.449996076	STERLING	lure	n/a	n/a	n/a	1
165.661	2.016639601	CHISEL	long	n/a	n/a	n/a	1
167.677	0.399988167	RUG	lure	n/a	n/a	n/a	1
168.077	0.633328833	APRON	lure	n/a	n/a	n/a	1
168.711	0.449994456	ACRONYM	lure	n/a	n/a	n/a	1
169.161	0.549986827	GOATEE	lure	n/a	n/a	n/a	1
169.711	0.666700416	RELATIVIST	lure	n/a	n/a	n/a	1
170.377	0.449957716	BEVERAGE	lure	n/a	n/a	n/a	1
170.827	0.61665854	OWNER	lure	n/a	n/a	n/a	1
171.444	0.716656445	GONDOLA	lure	n/a	n/a	n/a	1
172.161	0.616657377	CINEMA	lure	n/a	n/a	n/a	1
172.777	0.416655609	UNDERWOOD	lure	n/a	n/a	n/a	1
173.194	0.566665048	CRESCENDO	lure	n/a	n/a	n/a	1
173.761	0.61665497	STICK	short	n/a	n/a	n/a	1
174.377	0.533326548	LOCKSMITH	lure	n/a	n/a	n/a	1
174.911	0.499995355	FRAGMENT	lure	n/a	n/a	n/a	1
175.411	0.3500407	COB	lure	n/a	n/a	n/a	1
175.761	0.399947897	GASMASK	lure	n/a	n/a	n/a	1
176.161	0.333328376	PROPONENT	lure	n/a	n/a	n/a	1
176.494	0.485762187	CREWMEMBER	lure	n/a	n/a	n/a	1
176.98	0.397555145	PLANER	lure	n/a	n/a	n/a	1
177.377	0.654575047	MUD	lure	n/a	n/a	n/a	1
178.032	0.395415973	SANCTITY	lure	n/a	n/a	n/a	1
178.427	0.650029838	WALLBOARD	lure	n/a	n/a	n/a	1
179.077	0.383287023	TRACT	lure	n/a	n/a	n/a	1
179.46	0.633364398	PLYWOOD	lure	n/a	n/a	n/a	1
180.094	0.499954792	DABBLER	lure	n/a	n/a	n/a	1
180.594	0.416707284	DEFECTOR	lure	n/a	n/a	n/a	1
181.011	0.516613866	EXERTION	lure	n/a	n/a	n/a	1
181.527	0.483323729	WINDER	lure	n/a	n/a	n/a	1
182.01	2.016635829	SPEAR	long	n/a	n/a	n/a	1
184.027	0.568905182	REPRIEVE	lure	n/a	n/a	n/a	1
184.596	0.584566356	INSULATOR	lure	n/a	n/a	n/a	1
185.181	0.663173434	INHIBITION	lure	n/a	n/a	n/a	1
185.844	0.583325522	UNDERTAKER	lure	n/a	n/a	n/a	1
186.427	0.483326656	ROYALE	lure	n/a	n/a	n/a	1
186.91	0.466662137	CORNBREAD	lure	n/a	n/a	n/a	1
187.377	0.516659382	UNLOADER	lure	n/a	n/a	n/a	1
187.894	0.749989825	STOOL	lure	n/a	n/a	n/a	1
188.644	0.333328055	BUNTING	lure	n/a	n/a	n/a	1
188.977	0.416662003	CHESSBOARD	lure	n/a	n/a	n/a	1
189.394	0.683323125	ALMANAC	lure	n/a	n/a	n/a	1
190.077	0.583325924	LAKE	lure	n/a	n/a	n/a	1
190.66	2.01663919	RAVINE	long	n/a	n/a	n/a	1
192.677	0.549988329	NIGHTLINE	lure	n/a	n/a	n/a	1
193.227	0.349998415	FOREIGNER	lure	n/a	n/a	n/a	1
193.577	0.383326535	COMMITMENT	lure	n/a	n/a	n/a	1
193.96	0.633326916	CHOWDER	lure	n/a	n/a	n/a	1
194.594	0.53332574	PIXIE	lure	n/a	n/a	n/a	1
195.127	0.73644263	MAXIMUM	lure	n/a	n/a	n/a	1
195.863	0.730569996	APOSTLE	lure	n/a	n/a	n/a	1
196.594	0.316342727	PESSIMIST	lure	n/a	n/a	n/a	1
196.91	0.533276817	MINISTRY	lure	n/a	n/a	n/a	1
197.444	0.633327041	HEATSTROKE	lure	n/a	n/a	n/a	1
198.077	0.799986744	ABBEY	lure	n/a	n/a	n/a	1
198.877	0.533363266	OUTPORT	lure	n/a	n/a	n/a	1
199.41	2.016604408	GIFT	long	n/a	n/a	n/a	1
201.427	0.433371785	DIALOGUE	lure	n/a	n/a	n/a	1
201.86	0.516613635	QUAD	lure	n/a	n/a	n/a	1
202.377	0.34999422	CONTOUR	lure	n/a	n/a	n/a	1
202.727	0.449994619	DEALER	lure	n/a	n/a	n/a	1
203.177	0.433328411	CHILD	lure	n/a	n/a	n/a	1
203.61	0.500037632	CEREMONY	lure	n/a	n/a	n/a	1
204.11	0.566658006	DECEIT	lure	n/a	n/a	n/a	1
204.677	0.433341316	JOURNALIST	lure	n/a	n/a	n/a	1
205.11	0.433316253	CONCLUSION	lure	n/a	n/a	n/a	1
205.544	0.583324956	COPIER	lure	n/a	n/a	n/a	1
206.127	0.399994153	CHECKPOINT	lure	n/a	n/a	n/a	1
206.527	0.749989508	BURR	lure	n/a	n/a	n/a	1
207.277	0.499991195	HANDLER	lure	n/a	n/a	n/a	1
207.777	0.616615161	CYCLONE	short	n/a	n/a	n/a	1
208.393	0.383323914	TREE	lure	n/a	n/a	n/a	1
208.777	0.733323339	DEMANDER	lure	n/a	n/a	n/a	1
209.51	0.333328711	ADDITION	lure	n/a	n/a	n/a	1
209.843	0.633327119	EGGBEATER	lure	n/a	n/a	n/a	1
210.477	0.666691218	MILEAGE	lure	n/a	n/a	n/a	1
211.143	0.316630259	FLAGSTONE	lure	n/a	n/a	n/a	1
211.46	0.416702381	ATHEISM	lure	n/a	n/a	n/a	1
211.877	0.433278853	EMPIRICISM	lure	n/a	n/a	n/a	1
212.31	0.68332692	DOGFIGHT	lure	n/a	n/a	n/a	1
212.993	0.566655857	UNIVERSITY	lure	n/a	n/a	n/a	1
213.56	0.69999031	CIVILITY	lure	n/a	n/a	n/a	1
214.26	0.349997866	DICTATION	lure	n/a	n/a	n/a	1
214.61	0.383329355	DESIGNER	lure	n/a	n/a	n/a	1
214.993	0.549991503	PUNCHER	lure	n/a	n/a	n/a	1
215.543	0.583322535	GUARDHOUSE	lure	n/a	n/a	n/a	1
216.127	0.616663606	ISLAND	short	n/a	n/a	n/a	1
216.743	0.686608877	GALLUP	lure	n/a	n/a	n/a	1
217.43	0.646706409	POMPOM	lure	n/a	n/a	n/a	1
218.077	0.399988353	BREATHER	lure	n/a	n/a	n/a	1
218.477	0.633329225	MATRIARCH	lure	n/a	n/a	n/a	1
219.11	0.433322955	NIGHT	lure	n/a	n/a	n/a	1
219.543	0.533329913	THIEVERY	lure	n/a	n/a	n/a	1
220.077	0.616654352	WARLORD	lure	n/a	n/a	n/a	1
220.693	0.699994733	FOOTSIE	lure	n/a	n/a	n/a	1
221.393	0.349996138	NEURON	lure	n/a	n/a	n/a	1
221.743	0.516658363	GODSON	lure	n/a	n/a	n/a	1
222.26	0.44998959	CREEK	lure	n/a	n/a	n/a	1
222.71	0.616662505	MACHINIST	lure	n/a	n/a	n/a	1
223.327	0.699991708	BELLHOP	lure	n/a	n/a	n/a	1
224.027	0.499987374	ATMOSPHERE	lure	n/a	n/a	n/a	1
224.527	0.549998232	SOLITUDE	lure	n/a	n/a	n/a	1
225.077	0.516655816	SCRUFF	lure	n/a	n/a	n/a	1
225.593	0.499990255	ROSEWOOD	lure	n/a	n/a	n/a	1
226.093	0.399999516	FIREMEN	lure	n/a	n/a	n/a	1
226.493	n/a	HUMILITY	lure	n/a	n/a	n/a	1
238.026	0.716652897	CITY	lure	n/a	n/a	n/a	1
238.743	0.666663493	DOLLAR	lure	n/a	n/a	n/a	1
239.41	0.366659814	ANTIBODY	lure	n/a	n/a	n/a	1
239.776	0.766657067	REPERTORY	lure	n/a	n/a	n/a	1
240.543	0.366661962	TAILPIECE	lure	n/a	n/a	n/a	1
240.91	0.41665989	DRUMMER	lure	n/a	n/a	n/a	1
241.326	2.016640248	CENT	long	n/a	n/a	n/a	1
243.343	0.466700491	HEMLOCK	lure	n/a	n/a	n/a	1
243.81	0.518870031	SPEECH	lure	n/a	n/a	n/a	1
244.329	0.531130632	MISSY	lure	n/a	n/a	n/a	1
244.86	0.603444462	CLOUDBURST	lure	n/a	n/a	n/a	1
245.463	0.747569871	ADVERSARY	lure	n/a	n/a	n/a	1
246.211	0.648896847	DINER	lure	n/a	n/a	n/a	1
246.86	0.433331361	STATEHOOD	lure	n/a	n/a	n/a	1
247.293	0.766657138	INHALER	lure	n/a	n/a	n/a	1
248.06	0.49999332	BLOWER	lure	n/a	n/a	n/a	1
248.56	0.349989685	STARDOM	lure	n/a	n/a	n/a	1
248.91	0.566665525	ROCKER	lure	n/a	n/a	n/a	1
249.476	0.616655946	STICK	short	n/a	n/a	n/a	1
250.093	0.733383537	RETENTION	lure	n/a	n/a	n/a	1
250.826	0.44993412	Un/aIMITY	lure	n/a	n/a	n/a	1
251.276	0.516654156	WAISTCOAT	lure	n/a	n/a	n/a	1
251.793	0.55451948	GENIE	lure	n/a	n/a	n/a	1
252.347	0.496564311	SULFIDE	lure	n/a	n/a	n/a	1
252.844	0.565612088	PUZZLER	lure	n/a	n/a	n/a	1
253.41	0.433326141	CATACOMB	lure	n/a	n/a	n/a	1
253.843	0.449949585	SPINACH	lure	n/a	n/a	n/a	1
254.293	0.633323733	BUMMER	lure	n/a	n/a	n/a	1
254.926	0.483325879	COLLATION	lure	n/a	n/a	n/a	1
255.409	0.716656214	RETRACTION	lure	n/a	n/a	n/a	1
256.126	0.399995232	FRESHMEN	lure	n/a	n/a	n/a	1
256.526	0.70003394	INSTINCT	lure	n/a	n/a	n/a	1
257.226	0.633329483	INTERLINK	lure	n/a	n/a	n/a	1
257.859	1.016605559	BAn/aA	fruit	619	2	2	1
258.876	0.516660173	POLITICIAN	lure	n/a	n/a	n/a	1
259.393	0.399993453	CHALET	lure	n/a	n/a	n/a	1
259.793	0.40004686	ECONOMIST	lure	n/a	n/a	n/a	1
260.193	0.533273494	EPISODE	lure	n/a	n/a	n/a	1
260.726	0.666712675	TORSO	lure	n/a	n/a	n/a	1
261.393	0.499994515	CENTRALISM	lure	n/a	n/a	n/a	1
261.893	0.316606489	WHIZ	lure	n/a	n/a	n/a	1
262.209	0.700026265	DIALECT	lure	n/a	n/a	n/a	1
262.909	0.433291594	DRAKE	lure	n/a	n/a	n/a	1
263.343	0.766654632	SANCTUARY	lure	n/a	n/a	n/a	1
264.109	0.583326382	WEEK	lure	n/a	n/a	n/a	1
264.693	0.516705238	OVERHANG	lure	n/a	n/a	n/a	1
265.209	0.349948823	TEXT	lure	n/a	n/a	n/a	1
265.559	0.350040844	RADIANCE	lure	n/a	n/a	n/a	1
265.909	0.616613335	ISLAND	short	n/a	n/a	n/a	1
266.526	0.549990458	CONVICTION	lure	n/a	n/a	n/a	1
267.076	0.499988748	PEBBLE	lure	n/a	n/a	n/a	1
267.576	0.583330674	CHUMP	lure	n/a	n/a	n/a	1
268.159	0.399992341	GLEANER	lure	n/a	n/a	n/a	1
268.559	0.649990902	SUFFRAGE	lure	n/a	n/a	n/a	1
269.209	0.583323898	HEARTTHROB	lure	n/a	n/a	n/a	1
269.793	0.549997068	DUNCE	lure	n/a	n/a	n/a	1
270.343	0.416658812	SCUBA	lure	n/a	n/a	n/a	1
270.759	0.716652746	PEACE	lure	n/a	n/a	n/a	1
271.476	0.35000018	WATERFRONT	lure	n/a	n/a	n/a	1
271.826	0.3666601	STIRRUP	lure	n/a	n/a	n/a	1
272.193	0.616658968	CONFIDANT	lure	n/a	n/a	n/a	1
272.809	0.39999642	PORTHOLE	lure	n/a	n/a	n/a	1
273.209	0.383321562	HIDEAWAY	lure	n/a	n/a	n/a	1
273.593	0.749989735	SPACER	lure	n/a	n/a	n/a	1
274.343	2.016644348	SPEAR	long	n/a	n/a	n/a	1
276.359	0.483326207	COMPLICITY	lure	n/a	n/a	n/a	1
276.842	0.51665452	GUNPOINT	lure	n/a	n/a	n/a	1
277.359	0.73332612	AUTOGRAPH	lure	n/a	n/a	n/a	1
278.092	0.749992047	NOBLEMAN	lure	n/a	n/a	n/a	1
278.842	0.766656536	HOCKEY	lure	n/a	n/a	n/a	1
279.609	0.633324999	DISRUPTION	lure	n/a	n/a	n/a	1
280.242	0.683317513	PLASMA	lure	n/a	n/a	n/a	1
280.926	0.716656821	DIFFUSION	lure	n/a	n/a	n/a	1
281.642	0.416660803	ARBOR	lure	n/a	n/a	n/a	1
282.059	0.649994466	MONGREL	lure	n/a	n/a	n/a	1
282.709	0.616655073	CYCLONE	short	n/a	n/a	n/a	1
283.326	0.533331285	VORTEX	lure	n/a	n/a	n/a	1
283.859	0.616657156	ODDITY	lure	n/a	n/a	n/a	1
284.476	0.3666654	LANDSCAPE	lure	n/a	n/a	n/a	1
284.842	0.366658162	TRANSDUCER	lure	n/a	n/a	n/a	1
285.209	0.316657418	CONQUEST	lure	n/a	n/a	n/a	1
285.526	0.466659763	TELETYPE	lure	n/a	n/a	n/a	1
285.992	0.366667395	BOTANY	lure	n/a	n/a	n/a	1
286.359	0.549992932	WAXWORK	lure	n/a	n/a	n/a	1
286.909	0.699985053	PATHFINDER	lure	n/a	n/a	n/a	1
287.609	0.599995565	GENERATOR	lure	n/a	n/a	n/a	1
288.209	0.6833194	INDUCEMENT	lure	n/a	n/a	n/a	1
288.892	0.400047645	WIDTH	lure	n/a	n/a	n/a	1
289.292	0.633278116	REBEL	lure	n/a	n/a	n/a	1
289.926	0.499991798	CLASSICIST	lure	n/a	n/a	n/a	1
290.426	0.466660707	HOOPLA	lure	n/a	n/a	n/a	1
290.892	0.616658517	MATTER	short	n/a	n/a	n/a	1
291.509	0.566658639	BUCKTOOTH	lure	n/a	n/a	n/a	1
292.076	0.633324735	MISDEED	lure	n/a	n/a	n/a	1
292.709	0.533374569	WORKTABLE	lure	n/a	n/a	n/a	1
293.242	0.333279978	JUDICIARY	lure	n/a	n/a	n/a	1
293.576	0.74998633	MEMENTO	lure	n/a	n/a	n/a	1
294.326	0.516657072	SLACKER	lure	n/a	n/a	n/a	1
294.842	0.366665185	MONOXIDE	lure	n/a	n/a	n/a	1
295.209	0.616722806	PREDICTOR	lure	n/a	n/a	n/a	1
295.826	0.536747883	TEAR	lure	n/a	n/a	n/a	1
296.362	0.746508663	TOENAIL	lure	n/a	n/a	n/a	1
297.109	0.700034143	RELATION	lure	n/a	n/a	n/a	1
297.809	0.399943164	OREGANO	lure	n/a	n/a	n/a	1
298.209	0.449993681	VERB	lure	n/a	n/a	n/a	1
298.659	0.566709168	DENIAL	lure	n/a	n/a	n/a	1
299.226	2.016595606	LABEL	long	n/a	n/a	n/a	1
301.242	0.649982754	MISCHIEF	lure	n/a	n/a	n/a	1
301.892	0.416737916	OMISSION	lure	n/a	n/a	n/a	1
302.309	0.799916235	HYPNOTIST	lure	n/a	n/a	n/a	1
303.109	0.333332068	AFTERLIFE	lure	n/a	n/a	n/a	1
303.442	0.68551193	YEARBOOK	lure	n/a	n/a	n/a	1
304.128	0.56446438	EQUINOX	lure	n/a	n/a	n/a	1
304.692	0.666669222	DISASTER	lure	n/a	n/a	n/a	1
305.359	0.649985315	SCOREBOOK	lure	n/a	n/a	n/a	1
306.009	0.666657664	SEEKER	lure	n/a	n/a	n/a	1
306.675	0.549992017	ACORN	lure	n/a	n/a	n/a	1
307.225	2.016640123	RAVINE	long	n/a	n/a	n/a	1
309.242	0.649984737	RESPONSE	lure	n/a	n/a	n/a	1
309.892	0.449993987	SILENCER	lure	n/a	n/a	n/a	1
310.342	0.449993376	RECITATIVE	lure	n/a	n/a	n/a	1
310.792	0.416662205	CHAMELEON	lure	n/a	n/a	n/a	1
311.209	0.699990425	SPINSTER	lure	n/a	n/a	n/a	1
311.909	0.716662141	STYLIST	lure	n/a	n/a	n/a	1
312.625	0.583323182	STOPWATCH	lure	n/a	n/a	n/a	1
313.209	0.399994785	ICEBOX	lure	n/a	n/a	n/a	1
313.609	0.333329361	STIGMATA	lure	n/a	n/a	n/a	1
313.942	0.366662072	MYTH	lure	n/a	n/a	n/a	1
314.309	0.433325569	AUTOLOADER	lure	n/a	n/a	n/a	1
314.742	0.516661334	REMOVAL	lure	n/a	n/a	n/a	1
315.259	0.318180644	DEITY	lure	n/a	n/a	n/a	1
315.577	0.61513816	ROCK	short	n/a	n/a	n/a	1
316.192	0.483322732	TAXICAB	lure	n/a	n/a	n/a	1
316.675	0.566658576	OYSTER	lure	n/a	n/a	n/a	1
317.242	0.749995809	FARMYARD	lure	n/a	n/a	n/a	1
317.992	0.616652107	GOTHICISM	lure	n/a	n/a	n/a	1
318.609	0.416661756	STEAMSHIP	lure	n/a	n/a	n/a	1
319.025	0.749993651	CAUSALITY	lure	n/a	n/a	n/a	1
319.775	0.466655167	ANTIFREEZE	lure	n/a	n/a	n/a	1
320.242	0.416661492	SYMPTOM	lure	n/a	n/a	n/a	1
320.659	0.666663712	PENn/aT	lure	n/a	n/a	n/a	1
321.325	0.366659614	TROOPSHIP	lure	n/a	n/a	n/a	1
321.692	0.666657983	DRUDGERY	lure	n/a	n/a	n/a	1
322.359	0.600311411	PUTTY	lure	n/a	n/a	n/a	1
322.959	0.716331979	HOOP	lure	n/a	n/a	n/a	1
323.675	0.749990008	CANDOR	lure	n/a	n/a	n/a	1
324.425	1.016653062	ELDERBERRY	fruit	677	2	2	1
325.442	0.48332501	THROAT	lure	n/a	n/a	n/a	1
325.925	0.766662999	PLANELOAD	lure	n/a	n/a	n/a	1
326.692	0.4833234	SEDATIVE	lure	n/a	n/a	n/a	1
327.175	0.733322158	DOCKSIDE	lure	n/a	n/a	n/a	1
327.908	0.616654045	INTENT	lure	n/a	n/a	n/a	1
328.525	0.533333014	ESTIMATE	lure	n/a	n/a	n/a	1
329.058	0.349988115	JITTERBUG	lure	n/a	n/a	n/a	1
329.408	0.699992339	IMPACT	lure	n/a	n/a	n/a	1
330.108	0.649996557	CAMISOLE	lure	n/a	n/a	n/a	1
330.758	0.483319142	UNIVERSE	lure	n/a	n/a	n/a	1
331.242	0.566663166	LECTURER	lure	n/a	n/a	n/a	1
331.808	0.399998373	HOMEMAKER	lure	n/a	n/a	n/a	1
332.208	2.049965292	BELL	long	n/a	n/a	n/a	1
334.258	0.599992797	DAYBREAK	lure	n/a	n/a	n/a	1
334.858	0.38784154	TORRENT	lure	n/a	n/a	n/a	1
335.246	0.362150441	FLOWCHART	lure	n/a	n/a	n/a	1
335.608	0.566653604	EVERYTHING	lure	n/a	n/a	n/a	1
336.175	0.516666615	WOMEN	lure	n/a	n/a	n/a	1
336.692	0.549985371	PLURALITY	lure	n/a	n/a	n/a	1
337.242	0.366669985	CHEESECAKE	lure	n/a	n/a	n/a	1
337.608	0.616651907	CHECKOUT	lure	n/a	n/a	n/a	1
338.225	0.716656687	SHEEP	lure	n/a	n/a	n/a	1
338.942	0.583331799	SCORCHER	lure	n/a	n/a	n/a	1
339.525	0.71664843	SWEATER	lure	n/a	n/a	n/a	1
340.242	0.549992328	DISSIDENCE	lure	n/a	n/a	n/a	1
340.792	2.016645325	LIGHT	long	n/a	n/a	n/a	1
342.808	0.349995732	CAPE	lure	n/a	n/a	n/a	1
343.158	0.36665499	SCARFACE	lure	n/a	n/a	n/a	1
343.525	0.566719327	FUTILITY	lure	n/a	n/a	n/a	1
344.092	0.716603302	MANKIND	lure	n/a	n/a	n/a	1
344.808	0.483363105	DEFAMATION	lure	n/a	n/a	n/a	1
345.292	0.566617338	CHEMISTRY	lure	n/a	n/a	n/a	1
345.858	0.79999043	PEDICURE	lure	n/a	n/a	n/a	1
346.658	0.616656251	WINDBREAK	lure	n/a	n/a	n/a	1
347.275	0.683326096	DEFECTION	lure	n/a	n/a	n/a	1
347.958	0.366662683	QUARTZ	lure	n/a	n/a	n/a	1
348.325	0.483326964	TRANCE	lure	n/a	n/a	n/a	1
348.808	1.016649952	RASPBERRY	fruit	614	2	2	1
349.825	0.516659389	PENCE	lure	n/a	n/a	n/a	1
350.341	0.749989734	PAGANISM	lure	n/a	n/a	n/a	1
351.091	0.333329623	CESSATION	lure	n/a	n/a	n/a	1
351.425	0.699991175	MACE	lure	n/a	n/a	n/a	1
352.125	0.633324168	SUBSIDY	lure	n/a	n/a	n/a	1
352.758	0.349996666	BURLAP	lure	n/a	n/a	n/a	1
353.108	0.416655457	GIRAFFE	lure	n/a	n/a	n/a	1
353.525	0.716656811	DASHBOARD	lure	n/a	n/a	n/a	1
354.241	0.766659582	ESCAPADE	lure	n/a	n/a	n/a	1
355.008	0.366657469	LYRICISM	lure	n/a	n/a	n/a	1
355.375	0.583327489	NORMALCY	lure	n/a	n/a	n/a	1
355.958	0.716660929	LYMPH	lure	n/a	n/a	n/a	1
356.675	0.349993781	HANDBILL	lure	n/a	n/a	n/a	1
357.025	2.016641073	CHISEL	long	n/a	n/a	n/a	1
359.041	0.66665407	TRANSPORT	lure	n/a	n/a	n/a	1
359.708	0.46666245	OBSERVER	lure	n/a	n/a	n/a	1
360.175	0.649989048	REALITY	lure	n/a	n/a	n/a	1
360.825	0.433325952	FREEDMAN	lure	n/a	n/a	n/a	1
361.258	0.766657024	GOLDSMITH	lure	n/a	n/a	n/a	1
362.025	0.633327534	BOOKER	lure	n/a	n/a	n/a	1
362.658	0.366655605	SETTLER	lure	n/a	n/a	n/a	1
363.025	0.566660605	QUICKIE	lure	n/a	n/a	n/a	1
363.591	0.516658908	MICRON	lure	n/a	n/a	n/a	1
364.108	0.666658382	SINKHOLE	lure	n/a	n/a	n/a	1
364.775	0.549995395	ROOD	lure	n/a	n/a	n/a	1
365.325	0.616657066	PLANK	short	n/a	n/a	n/a	1
365.941	0.449995391	NONSMOKER	lure	n/a	n/a	n/a	1
366.391	0.583324897	BEAUTY	lure	n/a	n/a	n/a	1
366.975	0.733318509	INKLING	lure	n/a	n/a	n/a	1
367.708	0.666663183	HONESTY	lure	n/a	n/a	n/a	1
368.375	0.483324786	PERMANENCE	lure	n/a	n/a	n/a	1
368.858	0.466657487	REFUGE	lure	n/a	n/a	n/a	1
369.325	0.466662206	MAMBA	lure	n/a	n/a	n/a	1
369.791	0.583321656	ROOSTER	lure	n/a	n/a	n/a	1
370.375	0.349998907	JOURNALISM	lure	n/a	n/a	n/a	1
370.725	0.73332838	HEATWAVE	lure	n/a	n/a	n/a	1
371.458	0.499983546	DOCKYARD	lure	n/a	n/a	n/a	1
371.958	0.516661963	SISTER	lure	n/a	n/a	n/a	1
372.474	0.733323219	PIANO	lure	n/a	n/a	n/a	1
373.208	0.416662328	PRAGMATISM	lure	n/a	n/a	n/a	1
373.624	0.61665649	ORNAMENT	short	n/a	n/a	n/a	1
374.241	0.650724604	TUBE	lure	n/a	n/a	n/a	1
374.892	0.732591568	LANCER	lure	n/a	n/a	n/a	1
375.624	0.33332532	PROSE	lure	n/a	n/a	n/a	1
375.958	0.400049505	METHYL	lure	n/a	n/a	n/a	1
376.358	0.583275102	WALKER	lure	n/a	n/a	n/a	1
376.941	0.400047776	MAILBOX	lure	n/a	n/a	n/a	1
377.341	0.516645651	BONFIRE	lure	n/a	n/a	n/a	1
377.858	0.666616996	SECTOR	lure	n/a	n/a	n/a	1
378.524	0.666693773	FLAX	lure	n/a	n/a	n/a	1
379.191	0.466624259	DOUGH	lure	n/a	n/a	n/a	1
379.658	0.416699952	PAR	lure	n/a	n/a	n/a	1
380.074	0.549993693	FRICTION	lure	n/a	n/a	n/a	1
380.624	0.749948593	FLATTOP	lure	n/a	n/a	n/a	1
381.374	0.466661209	MOLECULE	lure	n/a	n/a	n/a	1
381.841	2.016636695	WAGON	long	n/a	n/a	n/a	1
383.858	0.350044763	FOOD	lure	n/a	n/a	n/a	1
384.208	0.433279406	FLUKE	lure	n/a	n/a	n/a	1
384.641	0.403006054	GIVEAWAY	lure	n/a	n/a	n/a	1
385.044	0.38031854	JOINER	lure	n/a	n/a	n/a	1
385.424	0.649984338	FEMINISM	lure	n/a	n/a	n/a	1
386.074	0.499995655	WASHBOARD	lure	n/a	n/a	n/a	1
386.574	0.483365892	VIGIL	lure	n/a	n/a	n/a	1
387.058	0.666620181	MARCHER	lure	n/a	n/a	n/a	1
387.724	0.683324059	GROUNDER	lure	n/a	n/a	n/a	1
388.408	0.699991726	WAD	lure	n/a	n/a	n/a	1
389.108	0.4333214	RANGER	lure	n/a	n/a	n/a	1
389.541	0.416660978	HAKE	lure	n/a	n/a	n/a	1
389.958	0.616664296	PANEL	short	n/a	n/a	n/a	1
390.574	0.41665446	PERSECUTOR	lure	n/a	n/a	n/a	1
390.991	0.499999742	WORKHORSE	lure	n/a	n/a	n/a	1
391.491	0.683323594	ENCHANTER	lure	n/a	n/a	n/a	1
392.174	0.71669558	TABLEWARE	lure	n/a	n/a	n/a	1
392.891	0.533322127	LIMOUSINE	lure	n/a	n/a	n/a	1
393.424	0.550010753	ASTRONAUT	lure	n/a	n/a	n/a	1
393.974	0.43332293	BLASPHEMY	lure	n/a	n/a	n/a	1
394.408	0.73327435	ROSEMARY	lure	n/a	n/a	n/a	1
395.141	0.349993333	MONK	lure	n/a	n/a	n/a	1
395.491	0.516661133	In/aOAD	lure	n/a	n/a	n/a	1
396.008	0.666651809	INFINITY	lure	n/a	n/a	n/a	1
396.674	0.618740443	PURITY	lure	n/a	n/a	n/a	1
397.293	0.514583194	REPLICA	lure	n/a	n/a	n/a	1
397.807	0.433324035	BOOTLEGGER	lure	n/a	n/a	n/a	1
398.241	2.01663856	PHOTO	long	n/a	n/a	n/a	1
400.257	0.36856186	VERNACULAR	lure	n/a	n/a	n/a	1
400.626	0.681421693	MISSILE	lure	n/a	n/a	n/a	1
401.307	0.583329351	DOMINO	lure	n/a	n/a	n/a	1
401.891	0.466655072	FIANCE	lure	n/a	n/a	n/a	1
402.357	0.366667969	OBSESSION	lure	n/a	n/a	n/a	1
402.724	0.433323156	SECESSION	lure	n/a	n/a	n/a	1
403.157	0.633323548	DOORSTOP	lure	n/a	n/a	n/a	1
403.791	0.566660442	HOUSEMAID	lure	n/a	n/a	n/a	1
404.357	0.50233209	FLINT	lure	n/a	n/a	n/a	1
404.86	0.716569106	TYPOGRAPHY	lure	n/a	n/a	n/a	1
405.576	0.647742374	BUTTONHOOK	lure	n/a	n/a	n/a	1
406.224	0.71665762	DICTION	lure	n/a	n/a	n/a	1
406.941	2.016634804	GIFT	long	n/a	n/a	n/a	1
408.957	0.499995713	EXAM	lure	n/a	n/a	n/a	1
409.457	0.516658369	SPOILER	lure	n/a	n/a	n/a	1
409.974	0.399996851	HANGER	lure	n/a	n/a	n/a	1
410.374	0.566659549	EXTRACTION	lure	n/a	n/a	n/a	1
410.941	0.616655853	INDICATION	lure	n/a	n/a	n/a	1
411.557	0.599988108	CRITTER	lure	n/a	n/a	n/a	1
412.157	0.366672324	PROFUSION	lure	n/a	n/a	n/a	1
412.524	0.666651002	MAST	lure	n/a	n/a	n/a	1
413.191	0.633362115	MORPHINE	lure	n/a	n/a	n/a	1
413.824	0.399956696	LUNGPOWER	lure	n/a	n/a	n/a	1
414.224	0.699986096	MOUTH	lure	n/a	n/a	n/a	1
414.924	0.533330894	SCOPE	lure	n/a	n/a	n/a	1
415.457	0.616653016	RIDGE	short	n/a	n/a	n/a	1
416.074	0.666662333	THYME	lure	n/a	n/a	n/a	1
416.741	0.7166612	RECTORY	lure	n/a	n/a	n/a	1
417.457	0.433319431	TENDERFOOT	lure	n/a	n/a	n/a	1
417.891	0.570673755	LIBRARIAN	lure	n/a	n/a	n/a	1
418.461	0.780344814	HARMONICA	lure	n/a	n/a	n/a	1
419.242	0.516791376	TROOPER	lure	n/a	n/a	n/a	1
419.758	0.582159345	UNBELIEVER	lure	n/a	n/a	n/a	1
420.341	0.433323817	BROW	lure	n/a	n/a	n/a	1
420.774	0.633366882	APPLIANCE	lure	n/a	n/a	n/a	1
421.407	0.466617306	NUTRIENT	lure	n/a	n/a	n/a	1
421.874	0.449994145	ELATION	lure	n/a	n/a	n/a	1
422.324	0.616658817	RECESSION	lure	n/a	n/a	n/a	1
422.94	0.649994877	CASTER	lure	n/a	n/a	n/a	1
423.59	0.433328843	SAFARI	lure	n/a	n/a	n/a	1
424.024	1.050045773	CHERRY	fruit	n/a	n/a	2	0
425.074	0.66659321	DRUMSTICK	lure	n/a	n/a	n/a	1
425.74	0.716660899	CHOW	lure	n/a	n/a	n/a	1
426.457	0.666656855	CHASM	lure	n/a	n/a	n/a	1
427.124	0.650045575	ROMPER	lure	n/a	n/a	n/a	1
427.774	0.583270246	DECEPTION	lure	n/a	n/a	n/a	1
428.357	0.599993686	XENOPHOBIA	lure	n/a	n/a	n/a	1
428.957	0.719866153	SATIRE	lure	n/a	n/a	n/a	1
429.677	0.667568423	FARCE	lure	n/a	n/a	n/a	1
430.344	0.495867026	EDUCATION	lure	n/a	n/a	n/a	1
430.84	0.666659979	APPARITION	lure	n/a	n/a	n/a	1
431.507	0.666655242	PEACOCK	lure	n/a	n/a	n/a	1
432.174	0.416661805	BUTTERMILK	lure	n/a	n/a	n/a	1
432.59	0.616655317	BROOM	short	n/a	n/a	n/a	1
433.207	0.483328739	BRAKEMAN	lure	n/a	n/a	n/a	1
433.69	0.616661827	MARROW	lure	n/a	n/a	n/a	1
434.307	0.566657425	GLASSWARE	lure	n/a	n/a	n/a	1
434.874	0.666654013	WRECKAGE	lure	n/a	n/a	n/a	1
435.54	0.38332763	GLIMPSE	lure	n/a	n/a	n/a	1
435.924	0.350000799	RIVERBOAT	lure	n/a	n/a	n/a	1
436.274	0.683322604	EXTRACT	lure	n/a	n/a	n/a	1
436.957	0.553360264	DISUNION	lure	n/a	n/a	n/a	1
437.51	0.565561809	CONDOR	lure	n/a	n/a	n/a	1
438.076	0.597723064	BAPTISM	lure	n/a	n/a	n/a	1
438.674	0.499986799	TRICYCLE	lure	n/a	n/a	n/a	1
439.174	0.666657191	IMAGERY	lure	n/a	n/a	n/a	1
439.84	0.566659394	ALLURE	lure	n/a	n/a	n/a	1
440.407	0.366665548	HELLCAT	lure	n/a	n/a	n/a	1
440.774	1.016654924	BAn/aA	fruit	552	2	2	1
441.79	0.633317886	MUSIC	lure	n/a	n/a	n/a	1
442.424	0.6999943	NEWSROOM	lure	n/a	n/a	n/a	1
443.124	0.51666151	POSSESSION	lure	n/a	n/a	n/a	1
443.64	0.599985866	BRICKWORK	lure	n/a	n/a	n/a	1
444.24	0.499995547	IMPRESSION	lure	n/a	n/a	n/a	1
444.74	0.516661139	RESPIRATOR	lure	n/a	n/a	n/a	1
445.257	0.683325699	ARMISTICE	lure	n/a	n/a	n/a	1
445.94	0.416655439	GRAYBEARD	lure	n/a	n/a	n/a	1
446.357	0.666657229	DISC	lure	n/a	n/a	n/a	1
447.023	0.46666016	SOJOURNER	lure	n/a	n/a	n/a	1
447.49	0.566658717	SUPPLIER	lure	n/a	n/a	n/a	1
448.057	0.466664717	CURIOSITY	lure	n/a	n/a	n/a	1
448.523	0.366657279	DIRECTIVE	lure	n/a	n/a	n/a	1
448.89	1.016658444	CANTELOUPE	fruit	636	2	2	1
449.907	0.61665761	HOUSEWIFE	lure	n/a	n/a	n/a	1
450.523	0.749985072	SAMBA	lure	n/a	n/a	n/a	1
451.273	0.44999356	TEXTBOOK	lure	n/a	n/a	n/a	1
451.723	0.516659281	LITER	lure	n/a	n/a	n/a	1
452.24	0.666662054	BOOKKEEPER	lure	n/a	n/a	n/a	1
452.907	0.566656136	DARTBOARD	lure	n/a	n/a	n/a	1
453.473	0.383331048	HASTE	lure	n/a	n/a	n/a	1
453.857	0.616657692	SHORTSTOP	lure	n/a	n/a	n/a	1
454.473	0.449993582	TOURIST	lure	n/a	n/a	n/a	1
454.923	0.549992702	ALLUSION	lure	n/a	n/a	n/a	1
455.473	0.666657386	VANDALISM	lure	n/a	n/a	n/a	1
456.14	0.5833243	PINSTRIPE	lure	n/a	n/a	n/a	1
456.723	0.466661608	NIGHTIE	lure	n/a	n/a	n/a	1
457.19	0.366660546	VIEWFINDER	lure	n/a	n/a	n/a	1
457.557	0.466658454	SEAHORSE	lure	n/a	n/a	n/a	1
458.023	0.633326353	PANTHEON	lure	n/a	n/a	n/a	1
458.657	0.449990249	TENACITY	lure	n/a	n/a	n/a	1
459.107	0.633327889	DIOXIDE	lure	n/a	n/a	n/a	1
459.74	0.683839296	CRUSADER	lure	n/a	n/a	n/a	1
460.424	0.466145438	HERBIVORE	lure	n/a	n/a	n/a	1
460.89	0.466660623	SPLOTCH	lure	n/a	n/a	n/a	1
461.357	0.699987832	REGIMEN	lure	n/a	n/a	n/a	1
462.057	0.566663185	FORESIGHT	lure	n/a	n/a	n/a	1
462.623	0.666656428	SALUTATION	lure	n/a	n/a	n/a	1
463.29	0.41799564	CHEMISE	lure	n/a	n/a	n/a	1
463.708	0.64865706	WEB	lure	n/a	n/a	n/a	1
464.357	0.533325357	SORBET	lure	n/a	n/a	n/a	1
464.89	n/a	ALPHABET	lure	n/a	n/a	n/a	1