onset	duration	stim	cond	RT	resp	cresp	acc
4.038	0.499994244	DUEL	lure	n/a	n/a	n/a	1
4.538	0.433323955	SORBET	lure	n/a	n/a	n/a	1
4.972	0.416665753	SUBURBIA	lure	n/a	n/a	n/a	1
5.388	0.383367431	DEFLATION	lure	n/a	n/a	n/a	1
5.772	0.383290346	MOPED	lure	n/a	n/a	n/a	1
6.155	0.733369547	CONVERSANT	lure	n/a	n/a	n/a	1
6.888	0.567643093	MARLIN	lure	n/a	n/a	n/a	1
7.456	0.415620984	QUIZMASTER	lure	n/a	n/a	n/a	1
7.872	2.016644572	PAGE	long	n/a	n/a	n/a	1
9.888	0.599988727	COLLISION	lure	n/a	n/a	n/a	1
10.488	0.649989671	FATSO	lure	n/a	n/a	n/a	1
11.138	0.666701036	CONVERTER	lure	n/a	n/a	n/a	1
11.805	0.649995632	HEATER	lure	n/a	n/a	n/a	1
12.455	0.699948462	DISUNION	lure	n/a	n/a	n/a	1
13.155	0.483326009	MIDSTREAM	lure	n/a	n/a	n/a	1
13.638	0.499985614	INCURSION	lure	n/a	n/a	n/a	1
14.138	0.649999944	APPOINTEE	lure	n/a	n/a	n/a	1
14.788	0.699989749	LION	lure	n/a	n/a	n/a	1
15.488	0.583321963	PHYSICIAN	lure	n/a	n/a	n/a	1
16.071	0.649989492	PICK	short	n/a	n/a	n/a	1
16.721	0.450042278	FLUENCY	lure	n/a	n/a	n/a	1
17.171	0.71661409	POSTMAN	lure	n/a	n/a	n/a	1
17.888	0.366660668	POLLEN	lure	n/a	n/a	n/a	1
18.255	0.566651018	CANAL	lure	n/a	n/a	n/a	1
18.821	0.450037512	ROPEWALK	lure	n/a	n/a	n/a	1
19.271	0.416616084	CHAMPAGNE	lure	n/a	n/a	n/a	1
19.688	0.49999439	BURGLARY	lure	n/a	n/a	n/a	1
20.188	0.734301732	DRIFTER	lure	n/a	n/a	n/a	1
20.922	0.699017987	RESOURCE	lure	n/a	n/a	n/a	1
21.621	0.350052215	TIDEWAY	lure	n/a	n/a	n/a	1
21.971	0.549927227	BULL	lure	n/a	n/a	n/a	1
22.521	0.366661557	PUMPKIN	lure	n/a	n/a	n/a	1
22.888	0.483335112	SHEET	lure	n/a	n/a	n/a	1
23.371	0.349994819	COMMANDO	lure	n/a	n/a	n/a	1
23.721	0.383321198	JEWELRY	lure	n/a	n/a	n/a	1
24.105	2.016645598	VAULT	long	n/a	n/a	n/a	1
26.121	0.383325478	PANEL	lure	n/a	n/a	n/a	1
26.505	0.316711546	TRAY	lure	n/a	n/a	n/a	1
26.821	0.433323307	COUNCILMAN	lure	n/a	n/a	n/a	1
27.255	0.41661234	PRECISION	lure	n/a	n/a	n/a	1
27.671	0.63332952	GASMASK	lure	n/a	n/a	n/a	1
28.305	0.399987329	PENTHOUSE	lure	n/a	n/a	n/a	1
28.705	0.600033831	DRUGSTORE	lure	n/a	n/a	n/a	1
29.305	0.5999493	IGNORANCE	lure	n/a	n/a	n/a	1
29.905	0.716697168	HISTORY	lure	n/a	n/a	n/a	1
30.621	0.733288957	DEPLOYMENT	lure	n/a	n/a	n/a	1
31.355	0.399988764	MOLEHILL	lure	n/a	n/a	n/a	1
31.755	0.36666379	TRAGEDY	lure	n/a	n/a	n/a	1
32.121	2.016643867	DRUM	long	n/a	n/a	n/a	1
34.138	0.399988858	MILLIMETER	lure	n/a	n/a	n/a	1
34.538	0.683322651	OFFSHOOT	lure	n/a	n/a	n/a	1
35.221	0.483334335	CELL	lure	n/a	n/a	n/a	1
35.704	0.583323421	HANDBILL	lure	n/a	n/a	n/a	1
36.288	0.766656378	GRANNY	lure	n/a	n/a	n/a	1
37.054	0.583320572	NECESSITY	lure	n/a	n/a	n/a	1
37.638	0.699989551	SOUNDTRACK	lure	n/a	n/a	n/a	1
38.338	0.317622938	CHAIRMAN	lure	n/a	n/a	n/a	1
38.655	0.582371998	ASPHALT	lure	n/a	n/a	n/a	1
39.238	0.333318886	NIGHT	lure	n/a	n/a	n/a	1
39.571	0.616718836	SPOILSPORT	lure	n/a	n/a	n/a	1
40.188	0.616606019	HOOD	short	n/a	n/a	n/a	1
40.804	0.566650296	DAMSEL	lure	n/a	n/a	n/a	1
41.371	0.566666288	FOXHOLE	lure	n/a	n/a	n/a	1
41.938	0.753581142	FISSION	lure	n/a	n/a	n/a	1
42.691	0.329738582	WONDERLAND	lure	n/a	n/a	n/a	1
43.021	0.633323367	HOCKEY	lure	n/a	n/a	n/a	1
43.654	0.333360942	PATROLMEN	lure	n/a	n/a	n/a	1
43.988	0.316622016	SHOWCASE	lure	n/a	n/a	n/a	1
44.304	0.466660443	ASTRONOMY	lure	n/a	n/a	n/a	1
44.771	0.700049091	FLAX	lure	n/a	n/a	n/a	1
45.471	0.349936211	AIRMEN	lure	n/a	n/a	n/a	1
45.821	0.550003233	ENAMEL	lure	n/a	n/a	n/a	1
46.371	0.699988117	BANISHMENT	lure	n/a	n/a	n/a	1
47.071	0.499992112	ADVISEMENT	lure	n/a	n/a	n/a	1
47.571	0.46665203	JOKER	lure	n/a	n/a	n/a	1
48.038	0.466668575	LOBSTER	lure	n/a	n/a	n/a	1
48.504	1.020247737	CHERRY	fruit	596	2	2	1
49.525	0.679725623	PROCESSOR	lure	n/a	n/a	n/a	1
50.204	0.483362183	TAILPIECE	lure	n/a	n/a	n/a	1
50.688	0.749954135	DISTEMPER	lure	n/a	n/a	n/a	1
51.438	0.733326798	VALIDITY	lure	n/a	n/a	n/a	1
52.171	0.399994585	SUNSPOT	lure	n/a	n/a	n/a	1
52.571	0.38332755	SATIRIST	lure	n/a	n/a	n/a	1
52.954	0.451220919	SCRIBE	lure	n/a	n/a	n/a	1
53.405	0.332098711	CLOSEOUT	lure	n/a	n/a	n/a	1
53.738	0.716692829	SALTWATER	lure	n/a	n/a	n/a	1
54.454	0.666623738	DRUMMER	lure	n/a	n/a	n/a	1
55.121	0.60003657	ANYTHING	lure	n/a	n/a	n/a	1
55.721	0.716605909	RECAP	lure	n/a	n/a	n/a	1
56.438	0.416662895	GYM	lure	n/a	n/a	n/a	1
56.854	2.016643767	GIFT	long	n/a	n/a	n/a	1
58.871	0.48337537	MAILMAN	lure	n/a	n/a	n/a	1
59.354	0.366611959	PRANK	lure	n/a	n/a	n/a	1
59.721	0.366653421	DESERT	lure	n/a	n/a	n/a	1
60.087	0.650039714	COMMITMENT	lure	n/a	n/a	n/a	1
60.737	0.766613624	MOUTHFUL	lure	n/a	n/a	n/a	1
61.504	0.366655772	DECADENCE	lure	n/a	n/a	n/a	1
61.871	0.333335252	PLAZA	lure	n/a	n/a	n/a	1
62.204	0.416693906	HOMETOWN	lure	n/a	n/a	n/a	1
62.621	0.76661558	INITIATION	lure	n/a	n/a	n/a	1
63.387	0.666659357	DEVELOPER	lure	n/a	n/a	n/a	1
64.054	0.63333079	HALFBACK	lure	n/a	n/a	n/a	1
64.687	0.716702349	ABDOMEN	lure	n/a	n/a	n/a	1
65.404	1.016607214	MULBERRY	fruit	n/a	n/a	2	0
66.421	0.399988049	NATURISM	lure	n/a	n/a	n/a	1
66.821	0.649997147	TRIPOD	lure	n/a	n/a	n/a	1
67.471	0.616649156	COMMANDER	lure	n/a	n/a	n/a	1
68.087	0.366663702	WOMEN	lure	n/a	n/a	n/a	1
68.454	0.39999458	AEROSPACE	lure	n/a	n/a	n/a	1
68.854	0.49999442	CRYPT	lure	n/a	n/a	n/a	1
69.354	0.616660139	INSTIGATOR	lure	n/a	n/a	n/a	1
69.971	0.733317909	HISTAMINE	lure	n/a	n/a	n/a	1
70.704	0.71665842	KNOB	lure	n/a	n/a	n/a	1
71.421	0.649988939	AGENDA	lure	n/a	n/a	n/a	1
72.071	0.45000229	SAVAGERY	lure	n/a	n/a	n/a	1
72.521	0.733315401	REVOLUTION	lure	n/a	n/a	n/a	1
73.254	0.616665742	FENDER	lure	n/a	n/a	n/a	1
73.871	0.616658124	RACKET	short	n/a	n/a	n/a	1
74.487	0.366660628	DOCKET	lure	n/a	n/a	n/a	1
74.854	0.549988752	HAIRDO	lure	n/a	n/a	n/a	1
75.404	0.61665391	TELECAST	lure	n/a	n/a	n/a	1
76.021	0.549992733	PROTEGE	lure	n/a	n/a	n/a	1
76.571	0.649990766	COMMUNION	lure	n/a	n/a	n/a	1
77.221	0.499992802	BOOKBINDER	lure	n/a	n/a	n/a	1
77.721	0.449994044	SNEAKER	lure	n/a	n/a	n/a	1
78.171	0.733326467	IRRITATION	lure	n/a	n/a	n/a	1
78.904	0.583321331	ANTENNA	lure	n/a	n/a	n/a	1
79.487	0.516666353	PLATITUDE	lure	n/a	n/a	n/a	1
80.004	0.49999179	LUMINOSITY	lure	n/a	n/a	n/a	1
80.504	0.449988593	BOOKWORM	lure	n/a	n/a	n/a	1
80.954	0.316662212	PIGSKIN	lure	n/a	n/a	n/a	1
81.27	0.499995888	LACROSSE	lure	n/a	n/a	n/a	1
81.77	2.016638019	PENDULUM	long	n/a	n/a	n/a	1
83.787	0.449991602	DRIFTWOOD	lure	n/a	n/a	n/a	1
84.237	0.733324959	SIGMA	lure	n/a	n/a	n/a	1
84.97	0.499996973	JAB	lure	n/a	n/a	n/a	1
85.47	0.533329291	DOUGHNUT	lure	n/a	n/a	n/a	1
86.004	0.616648887	TALE	lure	n/a	n/a	n/a	1
86.62	0.499993175	HOMEMAKER	lure	n/a	n/a	n/a	1
87.12	0.500058991	LONGSHOT	lure	n/a	n/a	n/a	1
87.62	0.685333949	CARNIVAL	lure	n/a	n/a	n/a	1
88.306	0.517565694	SULTAN	lure	n/a	n/a	n/a	1
88.823	0.449561782	BOATHOUSE	lure	n/a	n/a	n/a	1
89.273	0.430785927	CORNFLOWER	lure	n/a	n/a	n/a	1
89.704	0.616651599	ATLAS	short	n/a	n/a	n/a	1
90.32	0.483324895	ADOBE	lure	n/a	n/a	n/a	1
90.804	0.649996345	BOURBON	lure	n/a	n/a	n/a	1
91.454	0.6166956	LIQUIDITY	lure	n/a	n/a	n/a	1
92.07	0.51662505	CROSSFIRE	lure	n/a	n/a	n/a	1
92.587	0.549988912	INSECURITY	lure	n/a	n/a	n/a	1
93.137	0.46666058	CHAIRMEN	lure	n/a	n/a	n/a	1
93.604	0.483361779	REPAIRMEN	lure	n/a	n/a	n/a	1
94.087	0.399958822	PESSIMIST	lure	n/a	n/a	n/a	1
94.487	0.499997246	MENTALITY	lure	n/a	n/a	n/a	1
94.987	0.383322403	MORTUARY	lure	n/a	n/a	n/a	1
95.37	0.383330321	COGNITION	lure	n/a	n/a	n/a	1
95.754	0.583381483	ORACLE	lure	n/a	n/a	n/a	1
96.337	0.366604907	THYROID	lure	n/a	n/a	n/a	1
96.704	0.616660104	BAPTISM	lure	n/a	n/a	n/a	1
97.32	0.750047659	SEGMENT	lure	n/a	n/a	n/a	1
98.07	0.502383639	CONDOLENCE	lure	n/a	n/a	n/a	1
98.573	1.014255602	LEMON	fruit	912	2	2	1
99.587	0.46717097	MATCHSTICK	lure	n/a	n/a	n/a	1
100.054	0.382763735	BREADFRUIT	lure	n/a	n/a	n/a	1
100.437	0.600030801	COMPOSER	lure	n/a	n/a	n/a	1
101.037	0.56661957	COMBUSTION	lure	n/a	n/a	n/a	1
101.604	0.633375	CHURCHYARD	lure	n/a	n/a	n/a	1
102.237	0.583310006	DORM	lure	n/a	n/a	n/a	1
102.82	0.499957955	MEDIUM	lure	n/a	n/a	n/a	1
103.32	0.550027658	BUREAU	lure	n/a	n/a	n/a	1
103.87	0.516669295	OUTBACK	lure	n/a	n/a	n/a	1
104.387	0.516616186	SPECTER	lure	n/a	n/a	n/a	1
104.904	0.699981904	SATURATION	lure	n/a	n/a	n/a	1
105.603	0.466660359	DEPOT	lure	n/a	n/a	n/a	1
106.07	0.518174875	TORQUE	lure	n/a	n/a	n/a	1
106.588	0.648484604	ALGAE	lure	n/a	n/a	n/a	1
107.237	1.016651799	NECTARINE	fruit	792	2	2	1
108.253	0.716648682	LOT	lure	n/a	n/a	n/a	1
108.97	0.583374168	RIPTIDE	lure	n/a	n/a	n/a	1
109.553	0.670595871	INTERLINK	lure	n/a	n/a	n/a	1
110.224	0.346050763	LEOPARD	lure	n/a	n/a	n/a	1
110.57	0.36666711	STATUARY	lure	n/a	n/a	n/a	1
110.937	0.399948001	TONIC	lure	n/a	n/a	n/a	1
111.337	0.68337788	VILLAGER	lure	n/a	n/a	n/a	1
112.02	0.63326823	DOLT	lure	n/a	n/a	n/a	1
112.653	0.553170646	TIGHTROPE	lure	n/a	n/a	n/a	1
113.207	0.413485891	CUTBACK	lure	n/a	n/a	n/a	1
113.62	0.649987521	CHINAWARE	lure	n/a	n/a	n/a	1
114.27	0.566661933	DISBELIEF	lure	n/a	n/a	n/a	1
114.837	0.433393446	GODSON	lure	n/a	n/a	n/a	1
115.27	2.016573591	CORD	long	n/a	n/a	n/a	1
117.287	0.333324832	THICKET	lure	n/a	n/a	n/a	1
117.62	0.716659117	EXCELLENCY	lure	n/a	n/a	n/a	1
118.337	0.733320447	PLURALISM	lure	n/a	n/a	n/a	1
119.07	0.516659788	AHOY	lure	n/a	n/a	n/a	1
119.587	0.383336705	CAGE	lure	n/a	n/a	n/a	1
119.97	0.683852191	CHARADE	lure	n/a	n/a	n/a	1
120.654	0.616130494	TANKER	lure	n/a	n/a	n/a	1
121.27	0.616657012	CAPITAL	lure	n/a	n/a	n/a	1
121.887	0.5999876	GENEALOGY	lure	n/a	n/a	n/a	1
122.487	0.633328181	OXIDE	lure	n/a	n/a	n/a	1
123.12	0.666652058	INTERLUDE	lure	n/a	n/a	n/a	1
123.787	0.616664377	COLUMN	short	n/a	n/a	n/a	1
124.403	0.416657436	WATERFALL	lure	n/a	n/a	n/a	1
124.82	0.39999724	GLEN	lure	n/a	n/a	n/a	1
125.22	0.583316513	SPITE	lure	n/a	n/a	n/a	1
125.803	0.733326951	INVENTORY	lure	n/a	n/a	n/a	1
126.537	0.366660576	INMATE	lure	n/a	n/a	n/a	1
126.903	0.735093626	DEVIANCE	lure	n/a	n/a	n/a	1
127.638	0.381558859	TENANCY	lure	n/a	n/a	n/a	1
128.02	0.383324389	INACCURACY	lure	n/a	n/a	n/a	1
128.403	0.316670187	ACRONYM	lure	n/a	n/a	n/a	1
128.72	0.399988434	ABSOLUTISM	lure	n/a	n/a	n/a	1
129.12	0.616657679	TURNPIKE	lure	n/a	n/a	n/a	1
129.736	0.599992142	CLIMATE	lure	n/a	n/a	n/a	1
130.336	0.499993725	SUNBONNET	lure	n/a	n/a	n/a	1
130.836	0.75272886	EXHALATION	lure	n/a	n/a	n/a	1
131.589	0.580584588	ALCHEMIST	lure	n/a	n/a	n/a	1
132.17	0.616666149	SAND	short	n/a	n/a	n/a	1
132.786	0.466654601	GOVERNANCE	lure	n/a	n/a	n/a	1
133.253	0.533329281	CREATOR	lure	n/a	n/a	n/a	1
133.786	0.383325869	HOOF	lure	n/a	n/a	n/a	1
134.17	0.699985676	ENORMITY	lure	n/a	n/a	n/a	1
134.87	0.616662431	FAIRWAY	lure	n/a	n/a	n/a	1
135.486	0.499988987	DRAWBRIDGE	lure	n/a	n/a	n/a	1
135.986	0.499992198	SODA	lure	n/a	n/a	n/a	1
136.486	0.583332966	BAGGAGE	lure	n/a	n/a	n/a	1
137.07	0.683316413	DIVERGENCE	lure	n/a	n/a	n/a	1
137.753	0.733323131	REDSKIN	lure	n/a	n/a	n/a	1
138.486	0.716662092	TIEBREAKER	lure	n/a	n/a	n/a	1
139.203	0.449989558	LOBBYIST	lure	n/a	n/a	n/a	1
139.653	0.500041875	SHRUBBERY	lure	n/a	n/a	n/a	1
140.153	0.401869589	GAGE	lure	n/a	n/a	n/a	1
140.555	1.014734123	PLUM	fruit	786	2	2	1
141.57	0.749990468	MOTIF	lure	n/a	n/a	n/a	1
142.32	0.333323547	WATCHMAN	lure	n/a	n/a	n/a	1
142.653	0.483323413	REDCOAT	lure	n/a	n/a	n/a	1
143.136	0.716663518	CONGRUENCE	lure	n/a	n/a	n/a	1
143.853	0.449996046	SQUAD	lure	n/a	n/a	n/a	1
144.303	0.46696308	ELVER	lure	n/a	n/a	n/a	1
144.77	0.399733708	GEEZER	lure	n/a	n/a	n/a	1
145.17	0.33327873	HULA	lure	n/a	n/a	n/a	1
145.503	0.549992009	ROBIN	lure	n/a	n/a	n/a	1
146.053	0.766663873	TEMPLE	lure	n/a	n/a	n/a	1
146.82	0.416657241	DUSTPAN	lure	n/a	n/a	n/a	1
147.236	0.434150297	WARFARE	lure	n/a	n/a	n/a	1
147.67	0.349170488	OBLIVION	lure	n/a	n/a	n/a	1
148.02	0.483323228	DISORDER	lure	n/a	n/a	n/a	1
148.503	2.016641574	RATTLE	long	n/a	n/a	n/a	1
150.52	0.666660095	FAME	lure	n/a	n/a	n/a	1
151.186	0.483331142	SENTINEL	lure	n/a	n/a	n/a	1
151.67	0.466650443	SCRAPER	lure	n/a	n/a	n/a	1
152.136	0.599999781	PATROLMAN	lure	n/a	n/a	n/a	1
152.736	0.483326822	CROSSBAR	lure	n/a	n/a	n/a	1
153.219	0.66664911	PARAGON	lure	n/a	n/a	n/a	1
153.886	0.516699522	INFLECTION	lure	n/a	n/a	n/a	1
154.403	0.466626102	LOLLY	lure	n/a	n/a	n/a	1
154.869	0.566655571	WARRANTEE	lure	n/a	n/a	n/a	1
155.436	0.649988268	SEABIRD	lure	n/a	n/a	n/a	1
156.086	0.350057948	LEGISLATOR	lure	n/a	n/a	n/a	1
156.436	0.616603763	SAWDUST	short	n/a	n/a	n/a	1
157.053	0.316660801	BRAKEMAN	lure	n/a	n/a	n/a	1
157.369	0.333324074	CAT	lure	n/a	n/a	n/a	1
157.703	0.599989387	CREATION	lure	n/a	n/a	n/a	1
158.303	0.366661355	SCRIPT	lure	n/a	n/a	n/a	1
158.669	0.483326601	PLAYGROUP	lure	n/a	n/a	n/a	1
159.153	0.316662111	HOOPLA	lure	n/a	n/a	n/a	1
159.469	0.583325865	MOLAR	lure	n/a	n/a	n/a	1
160.053	0.552589743	GLUCOSE	lure	n/a	n/a	n/a	1
160.605	0.364068889	TEARJERKER	lure	n/a	n/a	n/a	1
160.969	0.537500006	COURTYARD	lure	n/a	n/a	n/a	1
161.507	0.629152617	COMPLAINT	lure	n/a	n/a	n/a	1
162.136	0.683316427	COBWEB	lure	n/a	n/a	n/a	1
162.819	0.399994481	SEAWALL	lure	n/a	n/a	n/a	1
163.219	0.566658808	STUDENT	lure	n/a	n/a	n/a	1
163.786	0.466668604	MYSTIQUE	lure	n/a	n/a	n/a	1
164.253	0.349987011	CURBSIDE	lure	n/a	n/a	n/a	1
164.603	0.616660664	CONTRACT	short	n/a	n/a	n/a	1
165.219	0.416660617	NEWSREEL	lure	n/a	n/a	n/a	1
165.636	0.350053303	SIDEWALK	lure	n/a	n/a	n/a	1
165.986	0.41660884	GIBLET	lure	n/a	n/a	n/a	1
166.403	0.716655969	FIRELIGHT	lure	n/a	n/a	n/a	1
167.119	0.39999442	QUARK	lure	n/a	n/a	n/a	1
167.519	0.499992898	OUTFITTER	lure	n/a	n/a	n/a	1
168.019	0.349994774	TOASTER	lure	n/a	n/a	n/a	1
168.369	0.333321192	COUNTY	lure	n/a	n/a	n/a	1
168.703	0.58332536	IMPRESSION	lure	n/a	n/a	n/a	1
169.286	0.649999754	ELF	lure	n/a	n/a	n/a	1
169.936	0.583322144	GEM	lure	n/a	n/a	n/a	1
170.519	0.36666123	PIGEONHOLE	lure	n/a	n/a	n/a	1
170.886	0.333325029	BALLOONIST	lure	n/a	n/a	n/a	1
171.219	0.633329415	BEAUTY	lure	n/a	n/a	n/a	1
171.853	0.43332071	FOOLERY	lure	n/a	n/a	n/a	1
172.286	0.616660559	TARIFF	lure	n/a	n/a	n/a	1
172.903	0.616658518	SWORD	short	n/a	n/a	n/a	1
173.519	0.733329711	CROISSANT	lure	n/a	n/a	n/a	1
174.253	0.36665201	STAIRCASE	lure	n/a	n/a	n/a	1
174.619	0.399994156	GRATUITY	lure	n/a	n/a	n/a	1
175.019	0.633325163	CABIN	lure	n/a	n/a	n/a	1
175.653	0.766719644	CONSULATE	lure	n/a	n/a	n/a	1
176.419	0.433308583	PLIGHT	lure	n/a	n/a	n/a	1
176.853	0.516623336	FRIGIDITY	lure	n/a	n/a	n/a	1
177.369	0.349994503	TOMB	lure	n/a	n/a	n/a	1
177.719	0.433358948	SITTER	lure	n/a	n/a	n/a	1
178.153	0.683336835	FRAGMENT	lure	n/a	n/a	n/a	1
178.836	0.399992668	COUNSELLOR	lure	n/a	n/a	n/a	1
179.236	0.499950822	COMMERCE	lure	n/a	n/a	n/a	1
179.736	0.650025573	LEEWAY	lure	n/a	n/a	n/a	1
180.386	0.516620727	STEAD	lure	n/a	n/a	n/a	1
180.902	2.050031592	GOLF	long	n/a	n/a	n/a	1
182.952	0.316652221	GRANITE	lure	n/a	n/a	n/a	1
183.269	0.666608148	PETAL	lure	n/a	n/a	n/a	1
183.936	0.483374624	EMIGRANT	lure	n/a	n/a	n/a	1
184.419	0.616646826	PROSE	lure	n/a	n/a	n/a	1
185.036	0.499957233	HERITAGE	lure	n/a	n/a	n/a	1
185.536	0.35003671	TOXICITY	lure	n/a	n/a	n/a	1
185.886	0.466620264	TESTIMONY	lure	n/a	n/a	n/a	1
186.352	0.333329062	BUCKTOOTH	lure	n/a	n/a	n/a	1
186.686	0.550036685	COURTHOUSE	lure	n/a	n/a	n/a	1
187.236	0.699997405	SWEEPER	lure	n/a	n/a	n/a	1
187.936	0.716647566	BROTHER	lure	n/a	n/a	n/a	1
188.652	0.583280302	ADDITIVE	lure	n/a	n/a	n/a	1
189.236	2.016638071	RAIL	long	n/a	n/a	n/a	1
191.252	0.549995577	TRAINEE	lure	n/a	n/a	n/a	1
191.802	0.566659216	ENZYME	lure	n/a	n/a	n/a	1
192.369	0.550034658	FUTURISM	lure	n/a	n/a	n/a	1
192.919	0.666615294	TRESPASSER	lure	n/a	n/a	n/a	1
193.586	0.716690661	CHIVALRY	lure	n/a	n/a	n/a	1
194.302	0.649947811	SETBACK	lure	n/a	n/a	n/a	1
194.952	0.685773785	CONFIDENCE	lure	n/a	n/a	n/a	1
195.638	0.497551525	DOORBELL	lure	n/a	n/a	n/a	1
196.136	0.766655685	SCORPION	lure	n/a	n/a	n/a	1
196.902	0.416660792	NIGHTLIFE	lure	n/a	n/a	n/a	1
197.319	1.016646699	GRAPE	fruit	774	2	2	1
198.336	0.466973541	GRAYBEARD	lure	n/a	n/a	n/a	1
198.803	0.366354137	TENOR	lure	n/a	n/a	n/a	1
199.169	0.433327657	DIPHTHERIA	lure	n/a	n/a	n/a	1
199.602	0.616655469	EPITAPH	lure	n/a	n/a	n/a	1
200.219	0.599992947	MOTTO	lure	n/a	n/a	n/a	1
200.819	0.533322978	SYNC	lure	n/a	n/a	n/a	1
201.352	0.749995354	HUNTSMAN	lure	n/a	n/a	n/a	1
202.102	0.566649046	PRODIGY	lure	n/a	n/a	n/a	1
202.669	0.383336398	PAVILION	lure	n/a	n/a	n/a	1
203.052	0.433325389	OCEAN	lure	n/a	n/a	n/a	1
203.485	0.516652886	PLAGIARIST	lure	n/a	n/a	n/a	1
204.002	0.616658514	En/aICHMENT	lure	n/a	n/a	n/a	1
204.619	0.733331397	FRIAR	lure	n/a	n/a	n/a	1
205.352	2.01663263	PHOTO	long	n/a	n/a	n/a	1
207.369	0.350001021	BARBELL	lure	n/a	n/a	n/a	1
207.719	0.453983998	WOODCUT	lure	n/a	n/a	n/a	1
208.173	0.615805852	LANCER	lure	n/a	n/a	n/a	1
208.789	0.763512727	VAGABOND	lure	n/a	n/a	n/a	1
209.552	0.516655801	CUTAWAY	lure	n/a	n/a	n/a	1
210.069	0.71666522	ANIMATION	lure	n/a	n/a	n/a	1
210.785	0.716648536	OATH	lure	n/a	n/a	n/a	1
211.502	0.633332175	IDIOCY	lure	n/a	n/a	n/a	1
212.135	0.416660135	ANGLER	lure	n/a	n/a	n/a	1
212.552	0.349988186	PREHISTORY	lure	n/a	n/a	n/a	1
212.902	0.41666543	BOAR	lure	n/a	n/a	n/a	1
213.319	0.650047137	PIN	short	n/a	n/a	n/a	1
213.969	0.433268855	SENTRY	lure	n/a	n/a	n/a	1
214.402	0.566657002	BUTTERMILK	lure	n/a	n/a	n/a	1
214.969	0.71666246	HEARTACHE	lure	n/a	n/a	n/a	1
215.685	0.649993101	HUMILITY	lure	n/a	n/a	n/a	1
216.335	0.533326336	LADING	lure	n/a	n/a	n/a	1
216.869	0.516656646	NEUTRALISM	lure	n/a	n/a	n/a	1
217.385	0.74999196	BUILDER	lure	n/a	n/a	n/a	1
218.135	0.650028723	EUPHEMISM	lure	n/a	n/a	n/a	1
218.785	0.499946563	CELLOPHANE	lure	n/a	n/a	n/a	1
219.285	0.616662716	SHEATH	lure	n/a	n/a	n/a	1
219.902	0.449989355	CONFLICT	lure	n/a	n/a	n/a	1
220.352	0.499993243	FORTITUDE	lure	n/a	n/a	n/a	1
220.852	0.666665551	COPYWRITER	lure	n/a	n/a	n/a	1
221.519	0.633319549	FEMINISM	lure	n/a	n/a	n/a	1
222.152	0.549997928	RUDDER	lure	n/a	n/a	n/a	1
222.702	0.433326785	RETIREMENT	lure	n/a	n/a	n/a	1
223.135	0.333320128	THEATRE	lure	n/a	n/a	n/a	1
223.469	0.466667138	VICEROY	lure	n/a	n/a	n/a	1
223.935	0.749983011	DYNASTY	lure	n/a	n/a	n/a	1
224.685	0.700054203	FIESTA	lure	n/a	n/a	n/a	1
225.385	0.385371205	SCIENCE	lure	n/a	n/a	n/a	1
225.771	0.497895144	WILDFOWL	lure	n/a	n/a	n/a	1
226.268	0.383321516	WEAVER	lure	n/a	n/a	n/a	1
226.652	n/a	BAZAAR	lure	n/a	n/a	n/a	1
238.002	0.616659743	SOJOURNER	lure	n/a	n/a	n/a	1
238.618	0.516659998	RENOWN	lure	n/a	n/a	n/a	1
239.135	0.516695274	OUTCOME	lure	n/a	n/a	n/a	1
239.652	0.349959919	METRO	lure	n/a	n/a	n/a	1
240.002	0.55002787	DEMOGRAPHY	lure	n/a	n/a	n/a	1
240.552	0.549957334	FOUNDATION	lure	n/a	n/a	n/a	1
241.102	0.68338321	AFTERNOON	lure	n/a	n/a	n/a	1
241.785	1.016646136	MANGO	fruit	692	2	2	1
242.802	0.349976761	GNAT	lure	n/a	n/a	n/a	1
243.152	0.600003241	AMBITION	lure	n/a	n/a	n/a	1
243.752	0.484061365	OVERSEER	lure	n/a	n/a	n/a	1
244.236	0.349265086	LIVER	lure	n/a	n/a	n/a	1
244.585	0.316610463	POWERBOAT	lure	n/a	n/a	n/a	1
244.902	0.583361151	MINK	lure	n/a	n/a	n/a	1
245.485	0.499953796	DIGGER	lure	n/a	n/a	n/a	1
245.985	0.616660035	MOTORCYCLE	lure	n/a	n/a	n/a	1
246.602	0.633325532	SPECULATOR	lure	n/a	n/a	n/a	1
247.235	0.48332554	DUD	lure	n/a	n/a	n/a	1
247.718	0.717192315	OVERKILL	lure	n/a	n/a	n/a	1
248.435	0.366187187	SPACESUIT	lure	n/a	n/a	n/a	1
248.802	0.749929161	RESEARCHER	lure	n/a	n/a	n/a	1
249.551	0.433327927	STREAKER	lure	n/a	n/a	n/a	1
249.985	2.016637697	VAULT	long	n/a	n/a	n/a	1
252.001	0.516709552	REGULARITY	lure	n/a	n/a	n/a	1
252.518	0.400005036	PETITIONER	lure	n/a	n/a	n/a	1
252.918	0.416600239	CONSORT	lure	n/a	n/a	n/a	1
253.335	0.533324537	BOULEVARD	lure	n/a	n/a	n/a	1
253.868	0.583325014	ASTRODOME	lure	n/a	n/a	n/a	1
254.451	0.533326915	SONG	lure	n/a	n/a	n/a	1
254.985	0.666714115	RACQUET	lure	n/a	n/a	n/a	1
255.651	0.433311255	AMPHIBIAN	lure	n/a	n/a	n/a	1
256.085	0.7666163	INDENTURE	lure	n/a	n/a	n/a	1
256.851	0.349995661	PEST	lure	n/a	n/a	n/a	1
257.201	0.74998991	CAVALRYMEN	lure	n/a	n/a	n/a	1
257.951	0.616657127	CONTENT	lure	n/a	n/a	n/a	1
258.568	1.016653496	CRANBERRY	fruit	677	2	2	1
259.585	0.533319614	DETACHMENT	lure	n/a	n/a	n/a	1
260.118	0.366661479	CUTLERY	lure	n/a	n/a	n/a	1
260.485	0.571058596	MALT	lure	n/a	n/a	n/a	1
261.056	0.445657455	MIDSUMMER	lure	n/a	n/a	n/a	1
261.501	0.516595783	EARPLUG	lure	n/a	n/a	n/a	1
262.018	0.74998987	TABLET	lure	n/a	n/a	n/a	1
262.768	0.766660672	EQUITY	lure	n/a	n/a	n/a	1
263.535	0.533321219	MAVERICK	lure	n/a	n/a	n/a	1
264.068	0.499999221	MANNEQUIN	lure	n/a	n/a	n/a	1
264.568	0.349991538	ROOKIE	lure	n/a	n/a	n/a	1
264.918	0.583326374	MOTORBIKE	lure	n/a	n/a	n/a	1
265.501	0.6833221	BIRDIE	lure	n/a	n/a	n/a	1
266.185	0.549995453	KEYHOLE	lure	n/a	n/a	n/a	1
266.735	0.633323831	QUARTZ	lure	n/a	n/a	n/a	1
267.368	2.016640651	RAIL	long	n/a	n/a	n/a	1
269.385	0.649984544	MADMEN	lure	n/a	n/a	n/a	1
270.035	0.349994918	MIXER	lure	n/a	n/a	n/a	1
270.385	0.616663835	INTEGER	lure	n/a	n/a	n/a	1
271.001	0.399988771	REPTILE	lure	n/a	n/a	n/a	1
271.401	0.383332707	INKLING	lure	n/a	n/a	n/a	1
271.785	0.551827083	CHARITY	lure	n/a	n/a	n/a	1
272.336	0.499567773	JAWBONE	lure	n/a	n/a	n/a	1
272.836	0.432780921	WORD	lure	n/a	n/a	n/a	1
273.269	0.599176376	DECATHLON	lure	n/a	n/a	n/a	1
273.868	0.666609995	AFTERSHAVE	lure	n/a	n/a	n/a	1
274.534	0.533326016	VESTIBULE	lure	n/a	n/a	n/a	1
275.068	0.733322214	NUMERATOR	lure	n/a	n/a	n/a	1
275.801	1.016655035	PEACH	fruit	756	2	2	1
276.818	0.41666003	BEEFCAKE	lure	n/a	n/a	n/a	1
277.234	0.433321531	COALITION	lure	n/a	n/a	n/a	1
277.668	0.499998568	EXTINCTION	lure	n/a	n/a	n/a	1
278.168	0.53332474	FINDER	lure	n/a	n/a	n/a	1
278.701	0.533321497	INVALIDITY	lure	n/a	n/a	n/a	1
279.234	0.666661534	TECHNIQUE	lure	n/a	n/a	n/a	1
279.901	0.350035765	BARKER	lure	n/a	n/a	n/a	1
280.251	0.583280253	INFO	lure	n/a	n/a	n/a	1
280.834	0.483326546	OPIATE	lure	n/a	n/a	n/a	1
281.318	0.433329522	DIVINATION	lure	n/a	n/a	n/a	1
281.751	0.416662968	BIRTHRATE	lure	n/a	n/a	n/a	1
282.168	0.333324299	DEPLETION	lure	n/a	n/a	n/a	1
282.501	0.320688501	RESOLUTION	lure	n/a	n/a	n/a	1
282.822	0.712634958	SEAMANSHIP	lure	n/a	n/a	n/a	1
283.534	0.716653561	ISLANDER	lure	n/a	n/a	n/a	1
284.251	0.666660007	CONTRACT	short	n/a	n/a	n/a	1
284.918	0.566660223	SAGEBRUSH	lure	n/a	n/a	n/a	1
285.484	0.516659913	CAVITY	lure	n/a	n/a	n/a	1
286.001	0.6166596	PARSONAGE	lure	n/a	n/a	n/a	1
286.618	0.466658476	PRONOUN	lure	n/a	n/a	n/a	1
287.084	0.583319512	PUSHCART	lure	n/a	n/a	n/a	1
287.668	0.566658752	RECITATION	lure	n/a	n/a	n/a	1
288.234	0.516663505	SANATORIUM	lure	n/a	n/a	n/a	1
288.751	0.4166596	ZEBRA	lure	n/a	n/a	n/a	1
289.168	0.385576961	SAVANNAH	lure	n/a	n/a	n/a	1
289.553	0.549415512	BOARDER	lure	n/a	n/a	n/a	1
290.103	0.631653672	APOSTROPHE	lure	n/a	n/a	n/a	1
290.734	0.433323551	PROGRAMMER	lure	n/a	n/a	n/a	1
291.168	0.533325728	DEVIANCY	lure	n/a	n/a	n/a	1
291.701	0.516663828	SCENERY	lure	n/a	n/a	n/a	1
292.218	2.01664144	GOLF	long	n/a	n/a	n/a	1
294.234	0.6499838	SHOWPLACE	lure	n/a	n/a	n/a	1
294.884	0.566658958	CAVEMEN	lure	n/a	n/a	n/a	1
295.451	0.716656234	ADOPTION	lure	n/a	n/a	n/a	1
296.168	0.633324871	CONIFER	lure	n/a	n/a	n/a	1
296.801	0.616662003	PARENTHOOD	lure	n/a	n/a	n/a	1
297.417	0.483323635	REPERTOIRE	lure	n/a	n/a	n/a	1
297.901	0.349995595	VENDOR	lure	n/a	n/a	n/a	1
298.251	0.716655261	ARMFUL	lure	n/a	n/a	n/a	1
298.967	0.566663047	AMP	lure	n/a	n/a	n/a	1
299.534	0.533321686	REFILL	lure	n/a	n/a	n/a	1
300.067	0.61665796	COLUMN	short	n/a	n/a	n/a	1
300.684	0.483332583	CAVERN	lure	n/a	n/a	n/a	1
301.167	0.599985598	JANITOR	lure	n/a	n/a	n/a	1
301.767	0.666663606	ACTIVATION	lure	n/a	n/a	n/a	1
302.434	0.583323982	EYETEETH	lure	n/a	n/a	n/a	1
303.017	0.483322059	SACCHARIN	lure	n/a	n/a	n/a	1
303.501	0.499998618	EXERTION	lure	n/a	n/a	n/a	1
304.001	0.549992401	HEXAGRAM	lure	n/a	n/a	n/a	1
304.551	0.516653757	CARTOON	lure	n/a	n/a	n/a	1
305.067	0.316667167	FLOWCHART	lure	n/a	n/a	n/a	1
305.384	0.516654356	CAB	lure	n/a	n/a	n/a	1
305.901	0.649991287	CRAYFISH	lure	n/a	n/a	n/a	1
306.551	0.75478368	BELLBOY	lure	n/a	n/a	n/a	1
307.305	0.528787476	GNOME	lure	n/a	n/a	n/a	1
307.834	0.449742737	PURSUIT	lure	n/a	n/a	n/a	1
308.284	2.016640518	RATTLE	long	n/a	n/a	n/a	1
310.301	0.316661492	MARIGOLD	lure	n/a	n/a	n/a	1
310.617	0.484297139	GIZZARD	lure	n/a	n/a	n/a	1
311.102	0.451562206	DADDY	lure	n/a	n/a	n/a	1
311.553	0.733571103	TOPSIDE	lure	n/a	n/a	n/a	1
312.287	0.600567235	BUCCANEER	lure	n/a	n/a	n/a	1
312.887	0.479964445	STONEWORK	lure	n/a	n/a	n/a	1
313.367	0.483322998	SCOREBOARD	lure	n/a	n/a	n/a	1
313.851	0.516659924	TREND	lure	n/a	n/a	n/a	1
314.367	0.449995536	SIDELINE	lure	n/a	n/a	n/a	1
314.817	0.699990556	ABSORBER	lure	n/a	n/a	n/a	1
315.517	0.516700903	PLASM	lure	n/a	n/a	n/a	1
316.034	0.399954096	GYPSY	lure	n/a	n/a	n/a	1
316.434	0.616659843	ATLAS	short	n/a	n/a	n/a	1
317.051	0.516654168	HANDLEBAR	lure	n/a	n/a	n/a	1
317.567	0.649993109	PHYSICIST	lure	n/a	n/a	n/a	1
318.217	0.583326127	SUPPORTER	lure	n/a	n/a	n/a	1
318.801	0.566659238	PETUNIA	lure	n/a	n/a	n/a	1
319.367	0.750044565	YARN	lure	n/a	n/a	n/a	1
320.117	0.366604478	OVERPRINT	lure	n/a	n/a	n/a	1
320.484	0.600030138	TINDERBOX	lure	n/a	n/a	n/a	1
321.084	0.466622219	LIGHTSHIP	lure	n/a	n/a	n/a	1
321.55	0.733321838	CALAMITY	lure	n/a	n/a	n/a	1
322.284	0.383326816	SIEGE	lure	n/a	n/a	n/a	1
322.667	0.400032625	TEARDROP	lure	n/a	n/a	n/a	1
323.067	0.749954409	WORKER	lure	n/a	n/a	n/a	1
323.817	0.583361896	NAVIGATOR	lure	n/a	n/a	n/a	1
324.4	0.333291657	TORTOISE	lure	n/a	n/a	n/a	1
324.734	2.016636402	PENDULUM	long	n/a	n/a	n/a	1
326.75	0.500036543	MOLE	lure	n/a	n/a	n/a	1
327.25	0.583278854	SCULLERY	lure	n/a	n/a	n/a	1
327.834	0.566664451	ALLOTMENT	lure	n/a	n/a	n/a	1
328.4	0.749989419	DOME	lure	n/a	n/a	n/a	1
329.15	0.633325302	BUTTONHOOK	lure	n/a	n/a	n/a	1
329.784	0.333363804	WIGWAM	lure	n/a	n/a	n/a	1
330.117	0.633329119	GRANDSTAND	lure	n/a	n/a	n/a	1
330.75	0.450001734	VOLLEYBALL	lure	n/a	n/a	n/a	1
331.2	0.383318132	AMBIGUITY	lure	n/a	n/a	n/a	1
331.584	0.683336047	CARTEL	lure	n/a	n/a	n/a	1
332.267	0.499942044	HESITANCE	lure	n/a	n/a	n/a	1
332.767	1.019487802	RASPBERRY	fruit	790	2	2	1
333.786	0.684574571	PRECINCT	lure	n/a	n/a	n/a	1
334.471	0.729793073	DISTILLER	lure	n/a	n/a	n/a	1
335.201	0.567564917	POKER	lure	n/a	n/a	n/a	1
335.768	0.581899869	PILGRIMAGE	lure	n/a	n/a	n/a	1
336.35	0.566619197	DIAMOND	lure	n/a	n/a	n/a	1
336.917	0.733323496	MUSK	lure	n/a	n/a	n/a	1
337.65	0.766657433	MATURITY	lure	n/a	n/a	n/a	1
338.417	0.616659082	INFLATION	lure	n/a	n/a	n/a	1
339.034	0.466658478	ANTHILL	lure	n/a	n/a	n/a	1
339.5	0.549995118	TROUPE	lure	n/a	n/a	n/a	1
340.05	0.449991551	GREEn/aOOM	lure	n/a	n/a	n/a	1
340.5	0.650036446	DINNER	lure	n/a	n/a	n/a	1
341.15	0.616610979	SWORD	short	n/a	n/a	n/a	1
341.767	0.333367279	LETTERBOX	lure	n/a	n/a	n/a	1
342.1	0.366670209	STARTER	lure	n/a	n/a	n/a	1
342.467	0.649947627	EPOCH	lure	n/a	n/a	n/a	1
343.117	0.366723648	ANARCHISM	lure	n/a	n/a	n/a	1
343.484	0.716631537	HERTZ	lure	n/a	n/a	n/a	1
344.2	0.450016454	LOVER	lure	n/a	n/a	n/a	1
344.65	0.383267891	CONFESSOR	lure	n/a	n/a	n/a	1
345.033	0.683322504	CLAUSE	lure	n/a	n/a	n/a	1
345.717	0.466658552	LEADER	lure	n/a	n/a	n/a	1
346.183	0.433381706	NATURALIST	lure	n/a	n/a	n/a	1
346.617	0.383275938	JUDGMENT	lure	n/a	n/a	n/a	1
347	0.366662107	JAY	lure	n/a	n/a	n/a	1
347.367	0.683323466	CURRICULUM	lure	n/a	n/a	n/a	1
348.05	0.633324482	MENTOR	lure	n/a	n/a	n/a	1
348.683	0.649989161	ALE	lure	n/a	n/a	n/a	1
349.333	2.050022602	CORD	long	n/a	n/a	n/a	1
351.383	0.366606909	SUNLAMP	lure	n/a	n/a	n/a	1
351.75	0.433333429	NEGLIGENCE	lure	n/a	n/a	n/a	1
352.183	0.716653544	SOOT	lure	n/a	n/a	n/a	1
352.9	0.616697549	EXAMINER	lure	n/a	n/a	n/a	1
353.517	0.316621803	DEERSKIN	lure	n/a	n/a	n/a	1
353.833	0.366718659	YEARLING	lure	n/a	n/a	n/a	1
354.2	0.566641416	COUNTRYMAN	lure	n/a	n/a	n/a	1
354.767	0.654073292	DEADLINE	lure	n/a	n/a	n/a	1
355.421	0.695871262	ABODE	lure	n/a	n/a	n/a	1
356.117	0.583371183	SENSATION	lure	n/a	n/a	n/a	1
356.7	0.549946664	DROPPER	lure	n/a	n/a	n/a	1
357.25	0.416724034	FREELOADER	lure	n/a	n/a	n/a	1
357.667	0.616592077	HOOD	short	n/a	n/a	n/a	1
358.283	0.683322582	TENDERFOOT	lure	n/a	n/a	n/a	1
358.967	0.636858524	CLINIC	lure	n/a	n/a	n/a	1
359.603	0.379794229	CHRONICLE	lure	n/a	n/a	n/a	1
359.983	0.649989376	VODKA	lure	n/a	n/a	n/a	1
360.633	0.44999569	PENGUIN	lure	n/a	n/a	n/a	1
361.083	0.633322619	POORHOUSE	lure	n/a	n/a	n/a	1
361.717	0.583329524	PACIFIST	lure	n/a	n/a	n/a	1
362.3	0.716658776	CASTER	lure	n/a	n/a	n/a	1
363.017	0.416657586	MONOGRAM	lure	n/a	n/a	n/a	1
363.433	0.449990705	WAND	lure	n/a	n/a	n/a	1
363.883	0.666709813	MINUTEMAN	lure	n/a	n/a	n/a	1
364.55	0.449982072	REMNANT	lure	n/a	n/a	n/a	1
365	0.683323366	POLYTHEISM	lure	n/a	n/a	n/a	1
365.683	0.569492698	STATESMEN	lure	n/a	n/a	n/a	1
366.253	2.015599133	GIFT	long	n/a	n/a	n/a	1
368.268	0.749570872	NEEDLEWORK	lure	n/a	n/a	n/a	1
369.018	0.415248938	FLAMINGO	lure	n/a	n/a	n/a	1
369.433	0.400041813	HUB	lure	n/a	n/a	n/a	1
369.833	0.466614423	BOXER	lure	n/a	n/a	n/a	1
370.3	0.466659042	VIABILITY	lure	n/a	n/a	n/a	1
370.766	0.633325357	CASEBOOK	lure	n/a	n/a	n/a	1
371.4	0.366718327	TERRAIN	lure	n/a	n/a	n/a	1
371.767	0.349935178	ADORATION	lure	n/a	n/a	n/a	1
372.116	0.566662644	GREASER	lure	n/a	n/a	n/a	1
372.683	0.749987183	THEATER	lure	n/a	n/a	n/a	1
373.433	0.433365289	CONVENT	lure	n/a	n/a	n/a	1
373.866	0.700012327	HOTHEAD	lure	n/a	n/a	n/a	1
374.566	0.6165965	RACKET	short	n/a	n/a	n/a	1
375.183	0.616662222	NUMEROLOGY	lure	n/a	n/a	n/a	1
375.8	0.700027944	IMPORTER	lure	n/a	n/a	n/a	1
376.5	0.516656776	SKINNER	lure	n/a	n/a	n/a	1
377.016	0.733285922	VILLA	lure	n/a	n/a	n/a	1
377.75	0.566654337	BEAUTICIAN	lure	n/a	n/a	n/a	1
378.316	0.68332963	NECKTIE	lure	n/a	n/a	n/a	1
379	0.733322244	BLOWPIPE	lure	n/a	n/a	n/a	1
379.733	0.499992911	MISSILE	lure	n/a	n/a	n/a	1
380.233	0.616658016	BRAZIER	lure	n/a	n/a	n/a	1
380.85	0.583375912	IMPOSTURE	lure	n/a	n/a	n/a	1
381.433	0.751788357	NONFICTION	lure	n/a	n/a	n/a	1
382.185	0.764807128	ACME	lure	n/a	n/a	n/a	1
382.95	0.616657269	SAWDUST	short	n/a	n/a	n/a	1
383.566	0.58332641	DUCKLING	lure	n/a	n/a	n/a	1
384.15	0.433324457	NUTRITION	lure	n/a	n/a	n/a	1
384.583	0.366661784	REACTION	lure	n/a	n/a	n/a	1
384.95	0.416661225	CINNAMON	lure	n/a	n/a	n/a	1
385.366	0.366660612	NECKBAND	lure	n/a	n/a	n/a	1
385.733	0.666659733	WORKINGMEN	lure	n/a	n/a	n/a	1
386.4	0.399995004	ANTLER	lure	n/a	n/a	n/a	1
386.8	0.616656638	ANTIDOTE	lure	n/a	n/a	n/a	1
387.416	0.549991552	SCUT	lure	n/a	n/a	n/a	1
387.966	0.399993637	PROSTATE	lure	n/a	n/a	n/a	1
388.366	0.483329966	SIGNATURE	lure	n/a	n/a	n/a	1
388.85	0.699988671	PHARMACY	lure	n/a	n/a	n/a	1
389.55	0.499993404	DOGHOUSE	lure	n/a	n/a	n/a	1
390.05	0.749991252	GAVEL	lure	n/a	n/a	n/a	1
390.8	0.349988881	MONOPOLY	lure	n/a	n/a	n/a	1
391.15	2.049975827	DRUM	long	n/a	n/a	n/a	1
393.199	0.666658546	ROADSIDE	lure	n/a	n/a	n/a	1
393.866	0.749983265	THIEF	lure	n/a	n/a	n/a	1
394.616	0.333329794	SOLIDITY	lure	n/a	n/a	n/a	1
394.949	0.566658303	LONER	lure	n/a	n/a	n/a	1
395.516	0.516659675	TANGENCY	lure	n/a	n/a	n/a	1
396.033	0.683325154	ABOLITION	lure	n/a	n/a	n/a	1
396.716	0.633329678	GUARDSMAN	lure	n/a	n/a	n/a	1
397.349	0.349994375	PRECESSION	lure	n/a	n/a	n/a	1
397.699	0.749984006	DILATION	lure	n/a	n/a	n/a	1
398.449	0.39999865	EEL	lure	n/a	n/a	n/a	1
398.849	2.016640513	PAGE	long	n/a	n/a	n/a	1
400.866	0.749986838	GIRTH	lure	n/a	n/a	n/a	1
401.616	0.48332545	FOOTPATH	lure	n/a	n/a	n/a	1
402.099	0.733327273	BATMAN	lure	n/a	n/a	n/a	1
402.833	0.533325012	SOUTHPAW	lure	n/a	n/a	n/a	1
403.366	0.635796845	CONDUCTION	lure	n/a	n/a	n/a	1
404.002	0.414189732	BRINK	lure	n/a	n/a	n/a	1
404.416	0.366657758	DRUMSTICK	lure	n/a	n/a	n/a	1
404.783	0.683320805	BEDSPREAD	lure	n/a	n/a	n/a	1
405.466	0.550052384	HAIRSTYLE	lure	n/a	n/a	n/a	1
406.016	0.716602397	HEADWIND	lure	n/a	n/a	n/a	1
406.733	0.649990271	GREYBEARD	lure	n/a	n/a	n/a	1
407.383	1.016653574	PEACH	fruit	694	2	2	1
408.399	0.749983404	PROCEDURE	lure	n/a	n/a	n/a	1
409.149	0.699996405	BALM	lure	n/a	n/a	n/a	1
409.849	0.637788207	NOVA	lure	n/a	n/a	n/a	1
410.487	0.395526186	TYPOLOGY	lure	n/a	n/a	n/a	1
410.883	0.700606716	STABILITY	lure	n/a	n/a	n/a	1
411.583	0.570565762	STILETTO	lure	n/a	n/a	n/a	1
412.154	0.61213801	RIFT	lure	n/a	n/a	n/a	1
412.766	0.366662178	JEEP	lure	n/a	n/a	n/a	1
413.133	0.483377702	KNAPSACK	lure	n/a	n/a	n/a	1
413.616	0.349989869	SEVERANCE	lure	n/a	n/a	n/a	1
413.966	0.583273934	CHOW	lure	n/a	n/a	n/a	1
414.549	0.583325019	MOTORCADE	lure	n/a	n/a	n/a	1
415.133	0.766662207	MICROWAVE	lure	n/a	n/a	n/a	1
415.899	0.616657846	SAND	short	n/a	n/a	n/a	1
416.516	0.533324825	SPHINCTER	lure	n/a	n/a	n/a	1
417.049	0.716651573	BATCH	lure	n/a	n/a	n/a	1
417.766	0.383387776	PLYWOOD	lure	n/a	n/a	n/a	1
418.149	0.416601505	CREWMEMBER	lure	n/a	n/a	n/a	1
418.566	0.46666566	LAIR	lure	n/a	n/a	n/a	1
419.032	0.550026698	WIFE	lure	n/a	n/a	n/a	1
419.582	0.666619691	AIRCRAFT	lure	n/a	n/a	n/a	1
420.249	0.599992783	TIPOFF	lure	n/a	n/a	n/a	1
420.849	0.433328825	KILOGRAM	lure	n/a	n/a	n/a	1
421.282	0.749988988	DISCUSSION	lure	n/a	n/a	n/a	1
422.032	0.716658147	CALIPER	lure	n/a	n/a	n/a	1
422.749	0.416659018	PROM	lure	n/a	n/a	n/a	1
423.166	0.533389133	INITIATIVE	lure	n/a	n/a	n/a	1
423.699	0.416599457	WHISKY	lure	n/a	n/a	n/a	1
424.116	2.016639142	PHOTO	long	n/a	n/a	n/a	1
426.132	0.399987843	WETTER	lure	n/a	n/a	n/a	1
426.532	0.599991874	BASSOON	lure	n/a	n/a	n/a	1
427.132	0.699993034	GANDER	lure	n/a	n/a	n/a	1
427.832	0.466657551	ZOOLOGIST	lure	n/a	n/a	n/a	1
428.299	0.633330906	DITTY	lure	n/a	n/a	n/a	1
428.932	0.516656606	ARTISAN	lure	n/a	n/a	n/a	1
429.449	0.716658155	EYELINER	lure	n/a	n/a	n/a	1
430.166	0.7333225	WATCHMEN	lure	n/a	n/a	n/a	1
430.899	0.399989876	BOUQUET	lure	n/a	n/a	n/a	1
431.299	0.449999927	REINDEER	lure	n/a	n/a	n/a	1
431.749	0.349989075	SKYLINE	lure	n/a	n/a	n/a	1
432.099	0.616665236	PIN	short	n/a	n/a	n/a	1
432.716	0.549991549	TODDLER	lure	n/a	n/a	n/a	1
433.266	0.699984027	OBSCENITY	lure	n/a	n/a	n/a	1
433.966	0.749989122	ODDITY	lure	n/a	n/a	n/a	1
434.716	0.366666404	DINOSAUR	lure	n/a	n/a	n/a	1
435.082	0.533326562	EARPIECE	lure	n/a	n/a	n/a	1
435.616	0.450050609	CHANTER	lure	n/a	n/a	n/a	1
436.066	0.733266497	ASSUMPTION	lure	n/a	n/a	n/a	1
436.799	0.499990417	SYCAMORE	lure	n/a	n/a	n/a	1
437.299	0.333330655	ICECUBE	lure	n/a	n/a	n/a	1
437.632	0.416660785	CAFFEINE	lure	n/a	n/a	n/a	1
438.049	0.683325759	LOTTO	lure	n/a	n/a	n/a	1
438.732	0.699989781	COMPANY	lure	n/a	n/a	n/a	1
439.432	0.683317781	MANAGEMENT	lure	n/a	n/a	n/a	1
440.115	0.616658163	PICK	short	n/a	n/a	n/a	1
440.732	0.499994599	PIANIST	lure	n/a	n/a	n/a	1
441.232	0.799991656	HIPPO	lure	n/a	n/a	n/a	1
442.032	0.466658114	EQUIPMENT	lure	n/a	n/a	n/a	1
442.499	0.349993006	CESSATION	lure	n/a	n/a	n/a	1
442.849	0.466662715	LETDOWN	lure	n/a	n/a	n/a	1
443.315	0.566658881	INVOCATION	lure	n/a	n/a	n/a	1
443.882	0.399993579	TESTICLE	lure	n/a	n/a	n/a	1
444.282	0.733613302	CHICKWEED	lure	n/a	n/a	n/a	1
445.016	0.666370927	PATIO	lure	n/a	n/a	n/a	1
445.682	0.433325183	FIRESIDE	lure	n/a	n/a	n/a	1
446.115	0.399993957	GRID	lure	n/a	n/a	n/a	1
446.515	0.633325406	GUMBO	lure	n/a	n/a	n/a	1
447.149	0.433323229	FIBER	lure	n/a	n/a	n/a	1
447.582	0.601001635	NOVOCAINE	lure	n/a	n/a	n/a	1
448.183	1.015648776	BLUEBERRY	fruit	654	2	2	1
449.199	0.466653961	FIN	lure	n/a	n/a	n/a	1
449.665	0.666662959	UPTAKE	lure	n/a	n/a	n/a	1
450.332	0.43332168	BASEMENT	lure	n/a	n/a	n/a	1
450.765	0.416660731	SUBSECTION	lure	n/a	n/a	n/a	1
451.182	0.666657281	WATT	lure	n/a	n/a	n/a	1
451.849	0.549997501	JOURNEYMAN	lure	n/a	n/a	n/a	1
452.399	0.533325279	JUNIPER	lure	n/a	n/a	n/a	1
452.932	0.316657998	BUNNY	lure	n/a	n/a	n/a	1
453.249	0.71666144	SNIFFER	lure	n/a	n/a	n/a	1
453.965	0.749988965	CONCUSSION	lure	n/a	n/a	n/a	1
454.715	0.53332251	WOMAN	lure	n/a	n/a	n/a	1
455.249	0.399998625	RAGTAG	lure	n/a	n/a	n/a	1
455.649	0.466659012	CLINCHER	lure	n/a	n/a	n/a	1
456.115	0.516659995	BORDERLAND	lure	n/a	n/a	n/a	1
456.632	0.666654522	SHORTFALL	lure	n/a	n/a	n/a	1
457.299	0.499994101	CAPITALISM	lure	n/a	n/a	n/a	1
457.799	0.400908077	DENTURE	lure	n/a	n/a	n/a	1
458.199	0.715740724	PRINTOUT	lure	n/a	n/a	n/a	1
458.915	0.549992138	RUNWAY	lure	n/a	n/a	n/a	1
459.465	0.666662537	INSOLENCE	lure	n/a	n/a	n/a	1
460.132	0.333326454	MULE	lure	n/a	n/a	n/a	1
460.465	0.333330616	TALCUM	lure	n/a	n/a	n/a	1
460.799	0.766657311	BARROW	lure	n/a	n/a	n/a	1
461.565	0.483323991	SNOWSHOE	lure	n/a	n/a	n/a	1
462.049	0.483325493	LENDER	lure	n/a	n/a	n/a	1
462.532	0.349996101	SINCERITY	lure	n/a	n/a	n/a	1
462.882	0.599992274	BLOKE	lure	n/a	n/a	n/a	1
463.482	0.649986897	PREDICATE	lure	n/a	n/a	n/a	1
464.132	0.333335457	TIMEPIECE	lure	n/a	n/a	n/a	1
464.465	n/a	ASCENDANCY	lure	n/a	n/a	n/a	1