onset	duration	stim	cond	RT	resp	cresp	acc
4.043	0.346636578	RESURGENCE	lure	n/a	n/a	n/a	1
4.39	0.349993899	ALLEGORY	lure	n/a	n/a	n/a	1
4.74	0.416721054	PLANET	lure	n/a	n/a	n/a	1
5.157	0.433329634	HELICOPTER	lure	n/a	n/a	n/a	1
5.59	0.416655073	EMPLOYMENT	lure	n/a	n/a	n/a	1
6.007	0.550008807	MIXTURE	lure	n/a	n/a	n/a	1
6.557	0.433310795	REFEREE	lure	n/a	n/a	n/a	1
6.99	0.733327046	BORER	lure	n/a	n/a	n/a	1
7.723	1.020647649	ELDERBERRY	fruit	627	2	2	1
8.744	0.795933643	REED	lure	n/a	n/a	n/a	1
9.54	0.499991919	PAYMASTER	lure	n/a	n/a	n/a	1
10.04	0.766655311	GOOGLY	lure	n/a	n/a	n/a	1
10.807	0.350100454	COLA	lure	n/a	n/a	n/a	1
11.157	0.616554802	ROBOT	lure	n/a	n/a	n/a	1
11.773	0.583325937	TREASURE	lure	n/a	n/a	n/a	1
12.357	0.649989263	BARRACUDA	lure	n/a	n/a	n/a	1
13.007	0.333328795	BIGHEAD	lure	n/a	n/a	n/a	1
13.34	0.683325646	DAGGER	lure	n/a	n/a	n/a	1
14.023	0.383324288	SLEET	lure	n/a	n/a	n/a	1
14.407	0.483328251	COMPETENCY	lure	n/a	n/a	n/a	1
14.89	0.404599961	STOCKPOT	lure	n/a	n/a	n/a	1
15.295	0.478722839	GHETTO	lure	n/a	n/a	n/a	1
15.773	0.616656222	PICK	short	n/a	n/a	n/a	1
16.39	0.499993555	EXTENSION	lure	n/a	n/a	n/a	1
16.89	0.700037555	JITTERBUG	lure	n/a	n/a	n/a	1
17.59	0.416613477	BODYWORK	lure	n/a	n/a	n/a	1
18.007	0.599991633	HESITANCY	lure	n/a	n/a	n/a	1
18.607	0.416661399	MASOn/aY	lure	n/a	n/a	n/a	1
19.023	0.733321929	FROGMAN	lure	n/a	n/a	n/a	1
19.757	0.783321671	CITATION	lure	n/a	n/a	n/a	1
20.54	0.399994585	ASSERTION	lure	n/a	n/a	n/a	1
20.94	0.43332776	HORNPIPE	lure	n/a	n/a	n/a	1
21.373	0.567822401	PESSIMISM	lure	n/a	n/a	n/a	1
21.941	0.38216462	COLONIST	lure	n/a	n/a	n/a	1
22.323	0.566657343	DIRECTION	lure	n/a	n/a	n/a	1
22.89	0.566660229	HABIT	lure	n/a	n/a	n/a	1
23.457	0.51665456	ENTITY	lure	n/a	n/a	n/a	1
23.973	2.016645066	GIFT	long	n/a	n/a	n/a	1
25.99	0.499990926	MORON	lure	n/a	n/a	n/a	1
26.49	0.716655269	SEVERITY	lure	n/a	n/a	n/a	1
27.206	0.683326531	AMBROSIA	lure	n/a	n/a	n/a	1
27.89	0.549992251	PARABOLA	lure	n/a	n/a	n/a	1
28.44	0.549992266	JASMINE	lure	n/a	n/a	n/a	1
28.99	0.633318434	DIAMETER	lure	n/a	n/a	n/a	1
29.623	0.716663056	NEARSIDE	lure	n/a	n/a	n/a	1
30.34	0.533319812	REFERENCE	lure	n/a	n/a	n/a	1
30.873	0.666662116	CONTAINER	lure	n/a	n/a	n/a	1
31.54	0.666704904	SAUNA	lure	n/a	n/a	n/a	1
32.206	0.616605887	HOOD	short	n/a	n/a	n/a	1
32.823	0.583328272	CRITIC	lure	n/a	n/a	n/a	1
33.406	0.733367545	LATCHKEY	lure	n/a	n/a	n/a	1
34.14	0.649949226	INSET	lure	n/a	n/a	n/a	1
34.79	0.349994473	FUSION	lure	n/a	n/a	n/a	1
35.14	0.533326527	IMPUTATION	lure	n/a	n/a	n/a	1
35.673	0.516658149	SANDALWOOD	lure	n/a	n/a	n/a	1
36.19	0.466655703	SOURDOUGH	lure	n/a	n/a	n/a	1
36.656	0.5333317	SCRIMMAGE	lure	n/a	n/a	n/a	1
37.19	0.683322371	DISUSE	lure	n/a	n/a	n/a	1
37.873	0.416659687	SUMMARY	lure	n/a	n/a	n/a	1
38.29	0.466662075	CANOE	lure	n/a	n/a	n/a	1
38.756	0.666651706	MACHINERY	lure	n/a	n/a	n/a	1
39.423	0.616727282	PUPIL	lure	n/a	n/a	n/a	1
40.04	0.516595595	ECOLOGY	lure	n/a	n/a	n/a	1
40.556	0.6166595	COLUMN	short	n/a	n/a	n/a	1
41.173	0.433363013	OPULENCE	lure	n/a	n/a	n/a	1
41.606	0.333290089	COOKY	lure	n/a	n/a	n/a	1
41.94	0.633323479	REDHEAD	lure	n/a	n/a	n/a	1
42.573	0.616661273	MARL	lure	n/a	n/a	n/a	1
43.19	0.449987947	SUPREME	lure	n/a	n/a	n/a	1
43.64	0.566664702	PASTOR	lure	n/a	n/a	n/a	1
44.206	0.583325673	PRESCHOOL	lure	n/a	n/a	n/a	1
44.79	0.63331821	CRUMB	lure	n/a	n/a	n/a	1
45.423	0.766661616	GAL	lure	n/a	n/a	n/a	1
46.19	0.766655759	TORMENTOR	lure	n/a	n/a	n/a	1
46.956	0.583371561	ATTRIBUTE	lure	n/a	n/a	n/a	1
47.54	0.549943316	BYWAY	lure	n/a	n/a	n/a	1
48.09	0.316709292	LEGEND	lure	n/a	n/a	n/a	1
48.406	2.016589019	VAULT	long	n/a	n/a	n/a	1
50.423	0.566709398	BROADSWORD	lure	n/a	n/a	n/a	1
50.99	0.716609267	PREVALENCE	lure	n/a	n/a	n/a	1
51.706	0.550033236	COMET	lure	n/a	n/a	n/a	1
52.256	0.449949096	STEAK	lure	n/a	n/a	n/a	1
52.706	0.633329694	CLOVERLEAF	lure	n/a	n/a	n/a	1
53.339	0.333323679	CHARISMA	lure	n/a	n/a	n/a	1
53.673	0.566658746	STEALTH	lure	n/a	n/a	n/a	1
54.239	0.583331358	BOMBSHELL	lure	n/a	n/a	n/a	1
54.823	0.633321911	DORMITORY	lure	n/a	n/a	n/a	1
55.456	0.616721542	EVERYONE	lure	n/a	n/a	n/a	1
56.073	0.666633541	ESPIONAGE	lure	n/a	n/a	n/a	1
56.739	0.649949917	SAND	short	n/a	n/a	n/a	1
57.389	0.668530365	KNOTHOLE	lure	n/a	n/a	n/a	1
58.058	0.714785759	ELECTION	lure	n/a	n/a	n/a	1
58.773	0.550042762	PHOSPHATE	lure	n/a	n/a	n/a	1
59.323	0.683268845	EXUBERANCE	lure	n/a	n/a	n/a	1
60.006	0.666663158	PROVISION	lure	n/a	n/a	n/a	1
60.673	0.449990331	EXCISE	lure	n/a	n/a	n/a	1
61.123	0.699993385	SPELLER	lure	n/a	n/a	n/a	1
61.823	0.749988998	MAXIMUM	lure	n/a	n/a	n/a	1
62.573	0.316657411	DISCLOSURE	lure	n/a	n/a	n/a	1
62.889	0.516663523	MAGNOLIA	lure	n/a	n/a	n/a	1
63.406	0.399994529	HANDSAW	lure	n/a	n/a	n/a	1
63.806	0.566659494	FIGURINE	lure	n/a	n/a	n/a	1
64.373	0.416659807	ROWBOAT	lure	n/a	n/a	n/a	1
64.789	0.733325485	WOODCARVER	lure	n/a	n/a	n/a	1
65.523	2.016637982	RATTLE	long	n/a	n/a	n/a	1
67.539	0.499987381	SHORTBREAD	lure	n/a	n/a	n/a	1
68.039	0.36982543	UNISON	lure	n/a	n/a	n/a	1
68.409	0.530564992	TOGA	lure	n/a	n/a	n/a	1
68.94	0.499593401	MAST	lure	n/a	n/a	n/a	1
69.439	0.633380774	HOOP	lure	n/a	n/a	n/a	1
70.073	0.333313033	PLAYROOM	lure	n/a	n/a	n/a	1
70.406	0.383334656	LEAKAGE	lure	n/a	n/a	n/a	1
70.789	0.449943059	DISPERSION	lure	n/a	n/a	n/a	1
71.239	0.499992772	HUSBANDRY	lure	n/a	n/a	n/a	1
71.739	0.733342772	WATCHTOWER	lure	n/a	n/a	n/a	1
72.473	0.583357188	BLACKBOARD	lure	n/a	n/a	n/a	1
73.056	0.616611872	SNAIL	lure	n/a	n/a	n/a	1
73.672	0.61665553	SAWDUST	short	n/a	n/a	n/a	1
74.289	0.516662715	CAULDRON	lure	n/a	n/a	n/a	1
74.806	0.399991763	LONGITUDE	lure	n/a	n/a	n/a	1
75.206	0.321057956	CHAPERONE	lure	n/a	n/a	n/a	1
75.527	0.412267199	CANISTER	lure	n/a	n/a	n/a	1
75.939	0.633325373	HOBO	lure	n/a	n/a	n/a	1
76.572	0.38332502	FOREFRONT	lure	n/a	n/a	n/a	1
76.956	0.433326424	BASEBALL	lure	n/a	n/a	n/a	1
77.389	0.316660213	BLIZZARD	lure	n/a	n/a	n/a	1
77.706	0.383328594	STATESMAN	lure	n/a	n/a	n/a	1
78.089	0.633325149	TONSIL	lure	n/a	n/a	n/a	1
78.722	0.635411144	PIRACY	lure	n/a	n/a	n/a	1
79.358	0.782283163	ENTOMOLOGY	lure	n/a	n/a	n/a	1
80.14	0.617796873	EMPATHY	lure	n/a	n/a	n/a	1
80.758	0.681137897	MORTICIAN	lure	n/a	n/a	n/a	1
81.439	0.449995839	WORKDAY	lure	n/a	n/a	n/a	1
81.889	2.016636844	PENDULUM	long	n/a	n/a	n/a	1
83.906	0.683324153	ANTHEM	lure	n/a	n/a	n/a	1
84.589	0.383325552	EXPECTANCE	lure	n/a	n/a	n/a	1
84.972	0.599995714	PULSATION	lure	n/a	n/a	n/a	1
85.572	0.399995845	NEWSPAPER	lure	n/a	n/a	n/a	1
85.972	0.533320185	ARTIST	lure	n/a	n/a	n/a	1
86.506	0.599995842	NEWSSTAND	lure	n/a	n/a	n/a	1
87.106	0.54999075	MAJESTY	lure	n/a	n/a	n/a	1
87.656	0.349995914	PETROL	lure	n/a	n/a	n/a	1
88.006	0.699987072	INGESTION	lure	n/a	n/a	n/a	1
88.706	0.316702106	VISA	lure	n/a	n/a	n/a	1
89.022	0.766619879	TENET	lure	n/a	n/a	n/a	1
89.789	0.616660192	CHISEL	lure	n/a	n/a	n/a	1
90.406	2.016638052	CORD	long	n/a	n/a	n/a	1
92.422	0.566656061	HYSTERIA	lure	n/a	n/a	n/a	1
92.989	0.383330439	CATARACT	lure	n/a	n/a	n/a	1
93.372	0.399993319	VIRTUOSITY	lure	n/a	n/a	n/a	1
93.772	0.599991255	STEPSON	lure	n/a	n/a	n/a	1
94.372	0.466661526	TRIVIALITY	lure	n/a	n/a	n/a	1
94.839	0.450033942	CARRIER	lure	n/a	n/a	n/a	1
95.289	0.333285584	ANTAGONIST	lure	n/a	n/a	n/a	1
95.622	0.733365914	RAINBOW	lure	n/a	n/a	n/a	1
96.356	0.416618031	OWNER	lure	n/a	n/a	n/a	1
96.772	0.500033444	FILLER	lure	n/a	n/a	n/a	1
97.272	0.41662279	TELESCOPE	lure	n/a	n/a	n/a	1
97.689	0.416660444	FLOATER	lure	n/a	n/a	n/a	1
98.105	0.766656486	SALAD	lure	n/a	n/a	n/a	1
98.872	0.616655846	RACKET	short	n/a	n/a	n/a	1
99.489	0.516702881	ROSETTE	lure	n/a	n/a	n/a	1
100.005	0.683283876	ACETONE	lure	n/a	n/a	n/a	1
100.689	0.333327614	ROTATION	lure	n/a	n/a	n/a	1
101.022	0.333326834	SCOPE	lure	n/a	n/a	n/a	1
101.355	0.433375029	CARLOAD	lure	n/a	n/a	n/a	1
101.789	0.416614755	IMBALANCE	lure	n/a	n/a	n/a	1
102.205	0.549992702	INCLINE	lure	n/a	n/a	n/a	1
102.755	0.383323149	PICKER	lure	n/a	n/a	n/a	1
103.139	0.799991691	HIPPIE	lure	n/a	n/a	n/a	1
103.939	0.416663499	JESTER	lure	n/a	n/a	n/a	1
104.355	0.683362738	SKYLARK	lure	n/a	n/a	n/a	1
105.039	0.583850838	TELEGRAPHY	lure	n/a	n/a	n/a	1
105.623	0.566093989	CARNAGE	lure	n/a	n/a	n/a	1
106.189	0.516658966	WALKOUT	lure	n/a	n/a	n/a	1
106.705	0.650035879	REAM	lure	n/a	n/a	n/a	1
107.355	1.016631499	BERRY	fruit	779	2	2	1
108.372	0.650014429	EARTHLING	lure	n/a	n/a	n/a	1
109.022	0.599943042	SQUALL	lure	n/a	n/a	n/a	1
109.622	0.38332856	MOOD	lure	n/a	n/a	n/a	1
110.005	0.450038361	FILMSTRIP	lure	n/a	n/a	n/a	1
110.455	0.649942963	BREAD	lure	n/a	n/a	n/a	1
111.105	0.716657779	VENISON	lure	n/a	n/a	n/a	1
111.822	0.350046162	INHABITANT	lure	n/a	n/a	n/a	1
112.172	0.499946269	PEDDLER	lure	n/a	n/a	n/a	1
112.672	0.599985414	PINEWOOD	lure	n/a	n/a	n/a	1
113.272	0.383333378	WOMANKIND	lure	n/a	n/a	n/a	1
113.655	0.366661112	SEPARATION	lure	n/a	n/a	n/a	1
114.022	0.483321291	PRIMACY	lure	n/a	n/a	n/a	1
114.505	0.733327108	BERET	lure	n/a	n/a	n/a	1
115.239	0.436390514	PRISM	lure	n/a	n/a	n/a	1
115.675	2.014602583	PHOTO	long	n/a	n/a	n/a	1
117.69	0.649011457	CONFLUENCE	lure	n/a	n/a	n/a	1
118.339	0.533279396	KINSHIP	lure	n/a	n/a	n/a	1
118.872	0.650048194	RHINO	lure	n/a	n/a	n/a	1
119.522	0.733265364	LAWMAN	lure	n/a	n/a	n/a	1
120.255	0.633373545	ARENA	lure	n/a	n/a	n/a	1
120.889	0.483278663	HEADMASTER	lure	n/a	n/a	n/a	1
121.372	0.750031173	DEVIATION	lure	n/a	n/a	n/a	1
122.122	0.383283079	NEBULA	lure	n/a	n/a	n/a	1
122.505	0.333332517	SUMMERTIME	lure	n/a	n/a	n/a	1
122.838	0.716655364	FLATTERY	lure	n/a	n/a	n/a	1
123.555	0.566658316	SCOREBOOK	lure	n/a	n/a	n/a	1
124.122	0.616654539	SWORD	short	n/a	n/a	n/a	1
124.738	0.316662163	COURTESY	lure	n/a	n/a	n/a	1
125.055	0.683366773	FOOTER	lure	n/a	n/a	n/a	1
125.738	0.716617091	JUNKIE	lure	n/a	n/a	n/a	1
126.455	0.500045384	HEMISPHERE	lure	n/a	n/a	n/a	1
126.955	0.483277965	SPLOTCH	lure	n/a	n/a	n/a	1
127.438	0.416657572	RATTLER	lure	n/a	n/a	n/a	1
127.855	0.716658608	RINGSIDE	lure	n/a	n/a	n/a	1
128.572	0.749988351	EVENING	lure	n/a	n/a	n/a	1
129.322	0.666655219	MUFFIN	lure	n/a	n/a	n/a	1
129.988	0.433330877	COPPERHEAD	lure	n/a	n/a	n/a	1
130.422	0.38332767	En/aOLLMENT	lure	n/a	n/a	n/a	1
130.805	0.583324136	PEDIGREE	lure	n/a	n/a	n/a	1
131.388	0.533373823	TUBE	lure	n/a	n/a	n/a	1
131.922	0.749941648	ADVICE	lure	n/a	n/a	n/a	1
132.672	1.016647526	NECTARINE	fruit	n/a	n/a	2	0
133.688	0.366703854	TRANSISTOR	lure	n/a	n/a	n/a	1
134.055	0.583283259	COOKOUT	lure	n/a	n/a	n/a	1
134.638	0.649996475	PLANTER	lure	n/a	n/a	n/a	1
135.288	0.533324569	FLEET	lure	n/a	n/a	n/a	1
135.822	0.616703841	INTRUDER	lure	n/a	n/a	n/a	1
136.438	0.69994139	WRIST	lure	n/a	n/a	n/a	1
137.138	0.470466083	HANDICRAFT	lure	n/a	n/a	n/a	1
137.609	0.362860896	POPULISM	lure	n/a	n/a	n/a	1
137.972	0.599984954	MOUSETRAP	lure	n/a	n/a	n/a	1
138.572	0.550046113	HALLWAY	lure	n/a	n/a	n/a	1
139.122	0.449942541	GUPPY	lure	n/a	n/a	n/a	1
139.572	0.433324439	DESTINY	lure	n/a	n/a	n/a	1
140.005	0.533332108	TOOLMAKER	lure	n/a	n/a	n/a	1
140.538	0.633324705	QUOTA	lure	n/a	n/a	n/a	1
141.172	2.016637009	GOLF	long	n/a	n/a	n/a	1
143.188	0.583371166	FREEDMEN	lure	n/a	n/a	n/a	1
143.772	0.3524054	FRESHMAN	lure	n/a	n/a	n/a	1
144.124	0.733576111	TEXTBOOK	lure	n/a	n/a	n/a	1
144.858	0.34728299	KINGPIN	lure	n/a	n/a	n/a	1
145.205	0.599993039	BRILLIANCE	lure	n/a	n/a	n/a	1
145.805	0.766658621	NETTLE	lure	n/a	n/a	n/a	1
146.571	0.53337449	EAR	lure	n/a	n/a	n/a	1
147.105	0.483272574	SEALER	lure	n/a	n/a	n/a	1
147.588	0.766661841	QUICKSTEP	lure	n/a	n/a	n/a	1
148.355	0.483320995	TURTLEDOVE	lure	n/a	n/a	n/a	1
148.838	0.733323298	DIFFERENCE	lure	n/a	n/a	n/a	1
149.571	0.616663232	PIN	short	n/a	n/a	n/a	1
150.188	0.566657689	VOLUME	lure	n/a	n/a	n/a	1
150.755	0.399989959	PROXIMITY	lure	n/a	n/a	n/a	1
151.155	0.466660159	BLOWHOLE	lure	n/a	n/a	n/a	1
151.621	0.749993998	CRATER	lure	n/a	n/a	n/a	1
152.371	0.499994112	LAYOVER	lure	n/a	n/a	n/a	1
152.871	0.716656758	ROLE	lure	n/a	n/a	n/a	1
153.588	0.600027202	VERNACULAR	lure	n/a	n/a	n/a	1
154.188	0.733331988	APARTHEID	lure	n/a	n/a	n/a	1
154.921	0.766611685	REMODEL	lure	n/a	n/a	n/a	1
155.688	0.749983707	ETHER	lure	n/a	n/a	n/a	1
156.438	0.316706954	SONGBOOK	lure	n/a	n/a	n/a	1
156.755	0.699947116	IMPATIENCE	lure	n/a	n/a	n/a	1
157.455	0.466702932	ORATION	lure	n/a	n/a	n/a	1
157.921	0.650006789	ATLAS	short	n/a	n/a	n/a	1
158.571	0.633269109	TRAINER	lure	n/a	n/a	n/a	1
159.205	0.383328903	ASSESSMENT	lure	n/a	n/a	n/a	1
159.588	0.416661019	LEFTHANDER	lure	n/a	n/a	n/a	1
160.005	0.467388435	WRESTLER	lure	n/a	n/a	n/a	1
160.472	0.582594755	NIECE	lure	n/a	n/a	n/a	1
161.055	0.449993132	FOREST	lure	n/a	n/a	n/a	1
161.505	0.549989709	REMINDER	lure	n/a	n/a	n/a	1
162.055	0.383333435	PERSON	lure	n/a	n/a	n/a	1
162.438	0.333323126	ELATION	lure	n/a	n/a	n/a	1
162.771	0.366665572	LLAMA	lure	n/a	n/a	n/a	1
163.138	0.71665249	REGIME	lure	n/a	n/a	n/a	1
163.855	0.416667116	PARODY	lure	n/a	n/a	n/a	1
164.271	0.733322803	STYLIST	lure	n/a	n/a	n/a	1
165.005	0.666651545	MOVER	lure	n/a	n/a	n/a	1
165.671	0.349997622	MATADOR	lure	n/a	n/a	n/a	1
166.021	1.016689463	LIME	fruit	657	2	2	1
167.038	0.354365289	ITEM	lure	n/a	n/a	n/a	1
167.392	0.381620077	THEOLOGY	lure	n/a	n/a	n/a	1
167.774	0.630674169	TURMOIL	lure	n/a	n/a	n/a	1
168.405	0.649943661	CEDAR	lure	n/a	n/a	n/a	1
169.054	0.349997145	HONEYDEW	lure	n/a	n/a	n/a	1
169.404	0.683322092	ICEMAN	lure	n/a	n/a	n/a	1
170.088	0.399996059	MAYPOLE	lure	n/a	n/a	n/a	1
170.488	0.566658027	JOURNALISM	lure	n/a	n/a	n/a	1
171.054	0.549993246	MOURNER	lure	n/a	n/a	n/a	1
171.604	0.366660573	ALLEYWAY	lure	n/a	n/a	n/a	1
171.971	0.333330013	VOTER	lure	n/a	n/a	n/a	1
172.304	0.466653583	WAD	lure	n/a	n/a	n/a	1
172.771	0.549997684	LIPSTICK	lure	n/a	n/a	n/a	1
173.321	0.700045797	PASSION	lure	n/a	n/a	n/a	1
174.021	0.316601321	ROMP	lure	n/a	n/a	n/a	1
174.338	2.016644237	DRUM	long	n/a	n/a	n/a	1
176.354	0.366655815	FESTIVITY	lure	n/a	n/a	n/a	1
176.721	0.433370249	STEALER	lure	n/a	n/a	n/a	1
177.154	0.416623626	PERMANENCE	lure	n/a	n/a	n/a	1
177.571	0.333325209	CELEBRITY	lure	n/a	n/a	n/a	1
177.904	0.566660194	COUP	lure	n/a	n/a	n/a	1
178.471	0.716653876	BACKLOG	lure	n/a	n/a	n/a	1
179.188	0.549996256	HOTBED	lure	n/a	n/a	n/a	1
179.738	0.366661728	STICKER	lure	n/a	n/a	n/a	1
180.104	0.716657418	CARGO	lure	n/a	n/a	n/a	1
180.821	0.399993447	SALE	lure	n/a	n/a	n/a	1
181.221	0.566656622	NUGGET	lure	n/a	n/a	n/a	1
181.788	0.536124062	WOAD	lure	n/a	n/a	n/a	1
182.324	0.61386443	CONTRACT	short	n/a	n/a	n/a	1
182.938	0.499989572	SPILLWAY	lure	n/a	n/a	n/a	1
183.438	0.399996653	COMEDY	lure	n/a	n/a	n/a	1
183.838	0.616655155	CHOLERA	lure	n/a	n/a	n/a	1
184.454	0.716659888	HESITATION	lure	n/a	n/a	n/a	1
185.171	0.616656276	NIGHTHAWK	lure	n/a	n/a	n/a	1
185.788	0.366660271	RADIATOR	lure	n/a	n/a	n/a	1
186.154	0.583324978	BASKETWORK	lure	n/a	n/a	n/a	1
186.738	0.649992898	TOAD	lure	n/a	n/a	n/a	1
187.388	0.566657745	WARDEN	lure	n/a	n/a	n/a	1
187.954	0.483328129	PREFERENCE	lure	n/a	n/a	n/a	1
188.438	0.649987699	BABE	lure	n/a	n/a	n/a	1
189.088	0.453253544	SEMESTER	lure	n/a	n/a	n/a	1
189.541	0.316561311	PERMEATION	lure	n/a	n/a	n/a	1
189.857	0.513505312	QUESTIONER	lure	n/a	n/a	n/a	1
190.371	0.399991935	TABLECLOTH	lure	n/a	n/a	n/a	1
190.771	2.01663449	RAIL	long	n/a	n/a	n/a	1
192.787	0.604768515	CATALYST	lure	n/a	n/a	n/a	1
193.392	0.628549576	SHERRY	lure	n/a	n/a	n/a	1
194.021	0.336579076	REMISSION	lure	n/a	n/a	n/a	1
194.357	0.496746592	DISSENTER	lure	n/a	n/a	n/a	1
194.854	0.366661531	ASSEMBLY	lure	n/a	n/a	n/a	1
195.221	0.383327665	COUPLER	lure	n/a	n/a	n/a	1
195.604	0.733317822	PROPRIETY	lure	n/a	n/a	n/a	1
196.337	0.366667143	ALTERATION	lure	n/a	n/a	n/a	1
196.704	0.599989097	BRANDY	lure	n/a	n/a	n/a	1
197.304	0.437188194	EDITORSHIP	lure	n/a	n/a	n/a	1
197.741	0.446135463	MISMATCH	lure	n/a	n/a	n/a	1
198.187	0.583319321	WALLET	lure	n/a	n/a	n/a	1
198.771	1.016655126	PLUM	fruit	891	2	2	1
199.787	0.749986989	BOWMAN	lure	n/a	n/a	n/a	1
200.537	0.383327777	ROMPER	lure	n/a	n/a	n/a	1
200.921	0.316669683	SAUCER	lure	n/a	n/a	n/a	1
201.237	0.733315635	TEPEE	lure	n/a	n/a	n/a	1
201.971	0.566663731	HALFTONE	lure	n/a	n/a	n/a	1
202.537	0.533325171	BOWLER	lure	n/a	n/a	n/a	1
203.071	0.549988713	MONGREL	lure	n/a	n/a	n/a	1
203.621	0.702849745	SYNTAX	lure	n/a	n/a	n/a	1
204.324	0.416561715	ENTRAPMENT	lure	n/a	n/a	n/a	1
204.74	0.634568269	UMPIRE	lure	n/a	n/a	n/a	1
205.375	0.595993934	ROWER	lure	n/a	n/a	n/a	1
205.971	0.316657858	BOOKMARK	lure	n/a	n/a	n/a	1
206.287	0.616660712	CLARINET	lure	n/a	n/a	n/a	1
206.904	1.016652962	PEAR	fruit	614	2	2	1
207.921	0.649988574	DIFFUSION	lure	n/a	n/a	n/a	1
208.571	0.535726154	HEADPIECE	lure	n/a	n/a	n/a	1
209.106	0.66425799	FOOTSTEP	lure	n/a	n/a	n/a	1
209.771	0.517099437	RAISER	lure	n/a	n/a	n/a	1
210.288	0.466216104	CATALOG	lure	n/a	n/a	n/a	1
210.754	0.433331805	MOUNTAIN	lure	n/a	n/a	n/a	1
211.187	0.333326118	BOMBSIGHT	lure	n/a	n/a	n/a	1
211.521	0.383326134	LAYOFF	lure	n/a	n/a	n/a	1
211.904	0.566663383	TWOSOME	lure	n/a	n/a	n/a	1
212.471	0.399990633	JACKAL	lure	n/a	n/a	n/a	1
212.871	0.350001355	WATERSHED	lure	n/a	n/a	n/a	1
213.221	0.616656395	MANNERISM	lure	n/a	n/a	n/a	1
213.837	0.316658694	TROUT	lure	n/a	n/a	n/a	1
214.154	0.483329451	PARSON	lure	n/a	n/a	n/a	1
214.637	0.349996413	LAMBSKIN	lure	n/a	n/a	n/a	1
214.987	2.016638568	PAGE	long	n/a	n/a	n/a	1
217.004	0.483326576	KILO	lure	n/a	n/a	n/a	1
217.487	0.416655058	AIRFRAME	lure	n/a	n/a	n/a	1
217.904	0.616657922	CINEMA	lure	n/a	n/a	n/a	1
218.52	0.616697814	RENDITION	lure	n/a	n/a	n/a	1
219.137	0.633288415	MOTORCAR	lure	n/a	n/a	n/a	1
219.77	0.416706795	BACON	lure	n/a	n/a	n/a	1
220.187	0.749943431	TRAIT	lure	n/a	n/a	n/a	1
220.937	0.633326966	DESOLATION	lure	n/a	n/a	n/a	1
221.57	0.549989347	NORM	lure	n/a	n/a	n/a	1
222.12	0.499996111	LOGGER	lure	n/a	n/a	n/a	1
222.62	0.316662511	EMBASSY	lure	n/a	n/a	n/a	1
222.937	0.750034036	GULLET	lure	n/a	n/a	n/a	1
223.687	0.533275598	MAGNET	lure	n/a	n/a	n/a	1
224.22	0.766660265	SAILCLOTH	lure	n/a	n/a	n/a	1
224.987	0.633323553	PENMANSHIP	lure	n/a	n/a	n/a	1
225.62	0.733395193	CLOCKWORK	lure	n/a	n/a	n/a	1
226.354	n/a	BOATMEN	lure	n/a	n/a	n/a	1
238.023	0.497098822	INNOVATION	lure	n/a	n/a	n/a	1
238.52	0.549998006	MART	lure	n/a	n/a	n/a	1
239.07	0.383326926	GLOOM	lure	n/a	n/a	n/a	1
239.454	0.716660507	PHILOSOPHY	lure	n/a	n/a	n/a	1
240.17	0.716655856	PANE	lure	n/a	n/a	n/a	1
240.887	0.666649263	MORSEL	lure	n/a	n/a	n/a	1
241.553	0.616666851	ATLAS	short	n/a	n/a	n/a	1
242.17	0.616651766	SEASHORE	lure	n/a	n/a	n/a	1
242.787	0.499990629	PERCEPTION	lure	n/a	n/a	n/a	1
243.287	0.583334807	KICKBACK	lure	n/a	n/a	n/a	1
243.87	0.549984343	SCALLION	lure	n/a	n/a	n/a	1
244.42	0.516666974	REVIVAL	lure	n/a	n/a	n/a	1
244.937	0.333368915	GRANDSON	lure	n/a	n/a	n/a	1
245.27	0.499997029	SENSOR	lure	n/a	n/a	n/a	1
245.77	0.716603891	PRAIRIE	lure	n/a	n/a	n/a	1
246.487	0.633332677	WINDBREAK	lure	n/a	n/a	n/a	1
247.12	0.766652146	EMBROIDERY	lure	n/a	n/a	n/a	1
247.887	0.549996278	NOTEBOOK	lure	n/a	n/a	n/a	1
248.437	0.683323919	KNUCKLE	lure	n/a	n/a	n/a	1
249.12	0.583378456	DIPSTICK	lure	n/a	n/a	n/a	1
249.703	0.466603453	RESERVOIR	lure	n/a	n/a	n/a	1
250.17	2.016639458	CORD	long	n/a	n/a	n/a	1
252.187	0.666657722	TRIBE	lure	n/a	n/a	n/a	1
252.853	0.65004077	LINEAGE	lure	n/a	n/a	n/a	1
253.503	0.449941919	ONION	lure	n/a	n/a	n/a	1
253.953	0.733324232	PERCENTILE	lure	n/a	n/a	n/a	1
254.687	0.316663298	NEWSROOM	lure	n/a	n/a	n/a	1
255.003	0.683377193	SHOWMEN	lure	n/a	n/a	n/a	1
255.687	0.583269764	BLOWGUN	lure	n/a	n/a	n/a	1
256.27	0.399997021	BRIDEGROOM	lure	n/a	n/a	n/a	1
256.67	0.733322763	LESSON	lure	n/a	n/a	n/a	1
257.403	0.6833822	HORNET	lure	n/a	n/a	n/a	1
258.087	0.566599353	CALYPSO	lure	n/a	n/a	n/a	1
258.653	2.016664503	GIFT	long	n/a	n/a	n/a	1
260.67	0.716631438	HORN	lure	n/a	n/a	n/a	1
261.387	0.416706694	HERESY	lure	n/a	n/a	n/a	1
261.803	0.400027658	ROSEWOOD	lure	n/a	n/a	n/a	1
262.203	0.416634865	CAPABILITY	lure	n/a	n/a	n/a	1
262.62	0.616605673	SIRLOIN	lure	n/a	n/a	n/a	1
263.237	0.766652241	MUSTANG	lure	n/a	n/a	n/a	1
264.003	0.766660371	BASKETBALL	lure	n/a	n/a	n/a	1
264.77	0.683322739	IMPOSITION	lure	n/a	n/a	n/a	1
265.453	0.433370975	FORBEAR	lure	n/a	n/a	n/a	1
265.887	0.59994486	SNOWSTORM	lure	n/a	n/a	n/a	1
266.486	0.416661305	BRUNT	lure	n/a	n/a	n/a	1
266.903	1.016649689	LEMON	fruit	695	2	2	1
267.92	0.333401779	GARGOYLE	lure	n/a	n/a	n/a	1
268.253	0.683310544	TRIBUNE	lure	n/a	n/a	n/a	1
268.936	0.516605758	TENACITY	lure	n/a	n/a	n/a	1
269.453	0.68771999	RAMBLER	lure	n/a	n/a	n/a	1
270.141	0.645595403	INSTINCT	lure	n/a	n/a	n/a	1
270.786	0.366715099	HAIRCUT	lure	n/a	n/a	n/a	1
271.153	0.516659011	IMPULSE	lure	n/a	n/a	n/a	1
271.67	0.550012426	EMBANKMENT	lure	n/a	n/a	n/a	1
272.22	0.749914994	HERBIVORE	lure	n/a	n/a	n/a	1
272.97	0.533325053	GENERATOR	lure	n/a	n/a	n/a	1
273.503	0.387902861	REPERTORY	lure	n/a	n/a	n/a	1
273.891	0.562086849	MUSICALITY	lure	n/a	n/a	n/a	1
274.453	0.366713691	TUTORIAL	lure	n/a	n/a	n/a	1
274.82	1.049979909	PEAR	fruit	562	2	2	1
275.87	0.33328721	PROTRUSION	lure	n/a	n/a	n/a	1
276.203	0.633315121	SCHOOLROOM	lure	n/a	n/a	n/a	1
276.836	0.566661403	SCENE	lure	n/a	n/a	n/a	1
277.403	0.549991567	TOURNAMENT	lure	n/a	n/a	n/a	1
277.953	0.516659132	MARCHER	lure	n/a	n/a	n/a	1
278.47	0.633327957	YOGA	lure	n/a	n/a	n/a	1
279.103	0.499990625	LITIGATION	lure	n/a	n/a	n/a	1
279.603	0.533369793	SCOOTER	lure	n/a	n/a	n/a	1
280.136	0.73328073	CONSTRAINT	lure	n/a	n/a	n/a	1
280.87	0.599990094	CAMPER	lure	n/a	n/a	n/a	1
281.47	0.716709134	HOUSECOAT	lure	n/a	n/a	n/a	1
282.186	0.583267016	PARKHOUSE	lure	n/a	n/a	n/a	1
282.77	0.700048363	FRAMER	lure	n/a	n/a	n/a	1
283.47	2.01658999	PAGE	long	n/a	n/a	n/a	1
285.486	0.466691074	NOTHING	lure	n/a	n/a	n/a	1
285.953	0.416619551	MOONBEAM	lure	n/a	n/a	n/a	1
286.37	0.483370058	BEAST	lure	n/a	n/a	n/a	1
286.853	0.699954353	PROVIDENCE	lure	n/a	n/a	n/a	1
287.553	0.383328546	RIDER	lure	n/a	n/a	n/a	1
287.936	0.6878259	SYMPATHY	lure	n/a	n/a	n/a	1
288.624	0.715692236	FACILITY	lure	n/a	n/a	n/a	1
289.34	0.429790271	MUSIC	lure	n/a	n/a	n/a	1
289.769	0.483318037	NEWSCASTER	lure	n/a	n/a	n/a	1
290.253	0.450001947	POPCORN	lure	n/a	n/a	n/a	1
290.703	0.449991031	SPANIEL	lure	n/a	n/a	n/a	1
291.153	0.749991618	TASSEL	lure	n/a	n/a	n/a	1
291.903	0.616654954	PICK	short	n/a	n/a	n/a	1
292.519	0.616654349	CENTRALITY	lure	n/a	n/a	n/a	1
293.136	0.467067471	CEREAL	lure	n/a	n/a	n/a	1
293.603	0.582921415	PROJECTION	lure	n/a	n/a	n/a	1
294.186	0.649986098	BOTANY	lure	n/a	n/a	n/a	1
294.836	0.466668611	WEEKDAY	lure	n/a	n/a	n/a	1
295.303	0.749989663	FREEMAN	lure	n/a	n/a	n/a	1
296.053	0.483326442	KNOCKER	lure	n/a	n/a	n/a	1
296.536	0.350026501	PARLOR	lure	n/a	n/a	n/a	1
296.886	0.549960757	COCKER	lure	n/a	n/a	n/a	1
297.436	0.633318523	TOPOGRAPHY	lure	n/a	n/a	n/a	1
298.069	0.399994262	OWNSELF	lure	n/a	n/a	n/a	1
298.469	0.616656222	PLAYTIME	lure	n/a	n/a	n/a	1
299.086	0.466728354	PACT	lure	n/a	n/a	n/a	1
299.553	0.64992239	SPEEDWAY	lure	n/a	n/a	n/a	1
300.203	0.616667263	COLUMN	short	n/a	n/a	n/a	1
300.819	0.649990451	PRESSER	lure	n/a	n/a	n/a	1
301.469	0.599988824	EQUALITY	lure	n/a	n/a	n/a	1
302.069	0.649985908	BASEMAN	lure	n/a	n/a	n/a	1
302.719	0.766663461	FORTNIGHT	lure	n/a	n/a	n/a	1
303.486	0.54999109	NIGHTSHADE	lure	n/a	n/a	n/a	1
304.036	0.616659282	BARN	lure	n/a	n/a	n/a	1
304.653	0.316658944	MONGOOSE	lure	n/a	n/a	n/a	1
304.969	0.500055153	VESTMENT	lure	n/a	n/a	n/a	1
305.469	0.649924996	UPROAR	lure	n/a	n/a	n/a	1
306.119	0.466659247	PLUNGER	lure	n/a	n/a	n/a	1
306.586	0.766662045	TYCOON	lure	n/a	n/a	n/a	1
307.353	0.41665505	PATHOLOGY	lure	n/a	n/a	n/a	1
307.769	0.566709354	ANGEL	lure	n/a	n/a	n/a	1
308.336	0.61660913	SAWDUST	short	n/a	n/a	n/a	1
308.953	0.666655426	HURLER	lure	n/a	n/a	n/a	1
309.619	0.683326785	FOOTBRIDGE	lure	n/a	n/a	n/a	1
310.303	0.649995941	ADDITION	lure	n/a	n/a	n/a	1
310.953	0.416659847	BAROMETER	lure	n/a	n/a	n/a	1
311.369	0.649984138	BOUGH	lure	n/a	n/a	n/a	1
312.019	0.433326883	MEDAL	lure	n/a	n/a	n/a	1
312.452	0.616666362	WOLFHOUND	lure	n/a	n/a	n/a	1
313.069	0.549993286	BOSOM	lure	n/a	n/a	n/a	1
313.619	0.46670782	DOWNTREND	lure	n/a	n/a	n/a	1
314.086	0.649997448	TREADMILL	lure	n/a	n/a	n/a	1
314.736	0.71659395	UNBELIEVER	lure	n/a	n/a	n/a	1
315.452	0.350000068	ROADBLOCK	lure	n/a	n/a	n/a	1
315.802	0.349989484	NARRATOR	lure	n/a	n/a	n/a	1
316.152	1.050042723	MANGO	fruit	870	2	2	1
317.202	0.69993395	CELLULOSE	lure	n/a	n/a	n/a	1
317.902	0.449995031	WORDPLAY	lure	n/a	n/a	n/a	1
318.352	0.749990476	KIDNEY	lure	n/a	n/a	n/a	1
319.102	0.383332426	SAINTHOOD	lure	n/a	n/a	n/a	1
319.486	0.633324141	ERASER	lure	n/a	n/a	n/a	1
320.119	0.349996403	MACHINIST	lure	n/a	n/a	n/a	1
320.469	0.585984049	BANGLE	lure	n/a	n/a	n/a	1
321.055	0.597333175	CAMPGROUND	lure	n/a	n/a	n/a	1
321.652	0.683323493	FOLDER	lure	n/a	n/a	n/a	1
322.336	0.483321493	CYNIC	lure	n/a	n/a	n/a	1
322.819	0.66665415	BARBARIAN	lure	n/a	n/a	n/a	1
323.486	0.416667082	PINHEAD	lure	n/a	n/a	n/a	1
323.902	0.616653069	MIDSHIP	lure	n/a	n/a	n/a	1
324.519	2.016645785	RAIL	long	n/a	n/a	n/a	1
326.536	0.499986736	VESTIGE	lure	n/a	n/a	n/a	1
327.036	0.400000244	EXCISION	lure	n/a	n/a	n/a	1
327.436	0.449986392	SOLDIERY	lure	n/a	n/a	n/a	1
327.886	0.349995928	INCAPACITY	lure	n/a	n/a	n/a	1
328.236	0.366662198	DOGCATCHER	lure	n/a	n/a	n/a	1
328.602	0.649995421	BOROUGH	lure	n/a	n/a	n/a	1
329.252	0.399989268	TURPENTINE	lure	n/a	n/a	n/a	1
329.652	0.516664785	PREPAYMENT	lure	n/a	n/a	n/a	1
330.169	0.499986163	HEMLOCK	lure	n/a	n/a	n/a	1
330.669	0.516665199	INEQUITY	lure	n/a	n/a	n/a	1
331.186	0.599994387	OBSTACLE	lure	n/a	n/a	n/a	1
331.786	0.3999863	ETHICIST	lure	n/a	n/a	n/a	1
332.186	0.466664365	GUNFIGHTER	lure	n/a	n/a	n/a	1
332.652	2.016642867	RATTLE	long	n/a	n/a	n/a	1
334.669	0.399985587	ADORNMENT	lure	n/a	n/a	n/a	1
335.069	0.583335734	SPATULA	lure	n/a	n/a	n/a	1
335.652	0.433320431	DIVULGENCE	lure	n/a	n/a	n/a	1
336.086	0.433323681	FARMSTEAD	lure	n/a	n/a	n/a	1
336.519	0.450002617	TEAMWORK	lure	n/a	n/a	n/a	1
336.969	0.666657261	BREAKAWAY	lure	n/a	n/a	n/a	1
337.635	0.683327658	ALIGNMENT	lure	n/a	n/a	n/a	1
338.319	0.366654521	PEASANTRY	lure	n/a	n/a	n/a	1
338.685	0.416665733	LANDFALL	lure	n/a	n/a	n/a	1
339.102	0.733363776	JAGUAR	lure	n/a	n/a	n/a	1
339.835	0.499986375	STAGECOACH	lure	n/a	n/a	n/a	1
340.335	0.599952639	ASSAILANT	lure	n/a	n/a	n/a	1
340.935	0.616661653	CONTRACT	short	n/a	n/a	n/a	1
341.552	0.450909065	AMULET	lure	n/a	n/a	n/a	1
342.003	0.332413271	STUPIDITY	lure	n/a	n/a	n/a	1
342.335	0.766656221	DUCKY	lure	n/a	n/a	n/a	1
343.102	0.333328651	FLYOVER	lure	n/a	n/a	n/a	1
343.435	0.449987707	RETRACTION	lure	n/a	n/a	n/a	1
343.885	0.766661429	DISTORTION	lure	n/a	n/a	n/a	1
344.652	0.699985465	BUGGY	lure	n/a	n/a	n/a	1
345.352	0.53332478	CENTRIFUGE	lure	n/a	n/a	n/a	1
345.885	0.383329357	SALAMANDER	lure	n/a	n/a	n/a	1
346.269	0.716693005	SCAPEGOAT	lure	n/a	n/a	n/a	1
346.985	0.38333271	PASSERBY	lure	n/a	n/a	n/a	1
347.369	0.533289757	TRIBESMEN	lure	n/a	n/a	n/a	1
347.902	0.516657988	PEPPERCORN	lure	n/a	n/a	n/a	1
348.419	0.333329842	COSMOLOGY	lure	n/a	n/a	n/a	1
348.752	1.016715212	BANANA	fruit	646	2	2	1
349.769	0.566596008	MOWER	lure	n/a	n/a	n/a	1
350.335	0.483324143	TIPPER	lure	n/a	n/a	n/a	1
350.819	0.433328846	HEARTBEAT	lure	n/a	n/a	n/a	1
351.252	0.449994276	PREVISION	lure	n/a	n/a	n/a	1
351.702	0.433328344	DECREASE	lure	n/a	n/a	n/a	1
352.135	0.416660291	RELATIVISM	lure	n/a	n/a	n/a	1
352.552	0.400026062	MOGUL	lure	n/a	n/a	n/a	1
352.952	0.599959552	OBVERSE	lure	n/a	n/a	n/a	1
353.552	0.433322026	RISER	lure	n/a	n/a	n/a	1
353.985	0.666713508	PRESSMAN	lure	n/a	n/a	n/a	1
354.652	0.499935947	CRACKER	lure	n/a	n/a	n/a	1
355.152	0.316661179	POSTBOX	lure	n/a	n/a	n/a	1
355.469	0.350000084	ATTENDANT	lure	n/a	n/a	n/a	1
355.819	0.799986853	SAMPLER	lure	n/a	n/a	n/a	1
356.619	0.48333143	FEMININITY	lure	n/a	n/a	n/a	1
357.102	0.616659022	SWORD	short	n/a	n/a	n/a	1
357.719	0.73331423	HYPHEN	lure	n/a	n/a	n/a	1
358.452	0.649990617	GREED	lure	n/a	n/a	n/a	1
359.102	0.649991172	TRIO	lure	n/a	n/a	n/a	1
359.752	0.416660554	FOLIAGE	lure	n/a	n/a	n/a	1
360.168	0.599995276	OVEN	lure	n/a	n/a	n/a	1
360.768	0.733326464	REFLEX	lure	n/a	n/a	n/a	1
361.502	0.533325328	HELMET	lure	n/a	n/a	n/a	1
362.035	0.466658679	SAFARI	lure	n/a	n/a	n/a	1
362.502	0.649994832	COSTUME	lure	n/a	n/a	n/a	1
363.152	0.716699851	FIREDOG	lure	n/a	n/a	n/a	1
363.868	0.733331785	BALLROOM	lure	n/a	n/a	n/a	1
364.602	0.433272802	NIP	lure	n/a	n/a	n/a	1
365.035	0.566653037	SWATCH	lure	n/a	n/a	n/a	1
365.602	2.016647269	PENDULUM	long	n/a	n/a	n/a	1
367.618	0.616649373	TRAPDOOR	lure	n/a	n/a	n/a	1
368.235	0.68332909	EXPLORER	lure	n/a	n/a	n/a	1
368.918	0.749992225	CHERUB	lure	n/a	n/a	n/a	1
369.668	0.583388929	WOMANIZER	lure	n/a	n/a	n/a	1
370.252	0.702087734	BEQUEST	lure	n/a	n/a	n/a	1
370.954	0.36450022	NOISE	lure	n/a	n/a	n/a	1
371.318	0.683317411	HOPPER	lure	n/a	n/a	n/a	1
372.002	0.583376807	SURVIVOR	lure	n/a	n/a	n/a	1
372.585	0.433275903	NEWSMAN	lure	n/a	n/a	n/a	1
373.018	0.366710161	PASTRY	lure	n/a	n/a	n/a	1
373.385	1.020718623	PLUM	fruit	821	2	2	1
374.406	0.383559747	STIGMA	lure	n/a	n/a	n/a	1
374.789	0.445651667	SHOWROOM	lure	n/a	n/a	n/a	1
375.235	0.683320446	BANKNOTE	lure	n/a	n/a	n/a	1
375.918	0.399994071	GAZEBO	lure	n/a	n/a	n/a	1
376.318	0.749990124	SPEAKEASY	lure	n/a	n/a	n/a	1
377.068	0.533325701	POET	lure	n/a	n/a	n/a	1
377.602	0.416666388	BOTANIST	lure	n/a	n/a	n/a	1
378.018	0.450958466	CONTROLLER	lure	n/a	n/a	n/a	1
378.469	0.399024479	SUBWAY	lure	n/a	n/a	n/a	1
378.868	0.699987612	RITE	lure	n/a	n/a	n/a	1
379.568	0.34999468	MIDDEN	lure	n/a	n/a	n/a	1
379.918	0.449993818	PIECEWORK	lure	n/a	n/a	n/a	1
380.368	0.799988886	AGILITY	lure	n/a	n/a	n/a	1
381.168	0.699991513	DICTATION	lure	n/a	n/a	n/a	1
381.868	2.016647438	DRUM	long	n/a	n/a	n/a	1
383.885	0.416701399	BUCKSKIN	lure	n/a	n/a	n/a	1
384.302	0.433283741	PILL	lure	n/a	n/a	n/a	1
384.735	0.433322079	DIOXIDE	lure	n/a	n/a	n/a	1
385.168	0.583331243	STEEPLE	lure	n/a	n/a	n/a	1
385.751	0.533373967	DELEGATE	lure	n/a	n/a	n/a	1
386.285	0.487184217	POTBELLY	lure	n/a	n/a	n/a	1
386.772	0.746085111	BOMBER	lure	n/a	n/a	n/a	1
387.518	0.699986493	RATIONALE	lure	n/a	n/a	n/a	1
388.218	0.483359001	LADDIE	lure	n/a	n/a	n/a	1
388.701	0.66667193	BARBER	lure	n/a	n/a	n/a	1
389.368	0.433281059	PAPERBOY	lure	n/a	n/a	n/a	1
389.801	0.349997463	PUDDLE	lure	n/a	n/a	n/a	1
390.151	2.016639152	VAULT	long	n/a	n/a	n/a	1
392.168	0.34998888	ABRIDGMENT	lure	n/a	n/a	n/a	1
392.518	0.583377167	DRAKE	lure	n/a	n/a	n/a	1
393.101	0.316659222	ESCAPADE	lure	n/a	n/a	n/a	1
393.418	0.449992758	CARTRIDGE	lure	n/a	n/a	n/a	1
393.868	0.61661142	COALFIELD	lure	n/a	n/a	n/a	1
394.485	0.416707065	HEIRLOOM	lure	n/a	n/a	n/a	1
394.901	0.383284608	CENT	lure	n/a	n/a	n/a	1
395.285	0.333322534	HACKSAW	lure	n/a	n/a	n/a	1
395.618	0.316671404	SPEECH	lure	n/a	n/a	n/a	1
395.935	0.466652719	BUTTERCUP	lure	n/a	n/a	n/a	1
396.401	0.533323974	INFIELDER	lure	n/a	n/a	n/a	1
396.935	0.616658342	HARPER	lure	n/a	n/a	n/a	1
397.551	0.683333314	HUMPBACK	lure	n/a	n/a	n/a	1
398.235	0.399989648	VAPOR	lure	n/a	n/a	n/a	1
398.635	0.650065278	RACKET	short	n/a	n/a	n/a	1
399.285	0.383256563	HEYDAY	lure	n/a	n/a	n/a	1
399.668	0.499990405	PUNCHER	lure	n/a	n/a	n/a	1
400.168	0.599989921	STANCE	lure	n/a	n/a	n/a	1
400.768	0.649995189	DEMOCRACY	lure	n/a	n/a	n/a	1
401.418	0.349996593	MAINSTAY	lure	n/a	n/a	n/a	1
401.768	0.416657241	PATRIOTISM	lure	n/a	n/a	n/a	1
402.185	0.549986835	EXPERT	lure	n/a	n/a	n/a	1
402.735	0.58332789	VILLAIN	lure	n/a	n/a	n/a	1
403.318	0.533329709	PITFALL	lure	n/a	n/a	n/a	1
403.851	0.583394432	VELVET	lure	n/a	n/a	n/a	1
404.435	0.533250132	LOTION	lure	n/a	n/a	n/a	1
404.968	0.366661254	HEIGHT	lure	n/a	n/a	n/a	1
405.335	0.383333084	DOORMAT	lure	n/a	n/a	n/a	1
405.718	0.53332588	CARAMEL	lure	n/a	n/a	n/a	1
406.251	0.53332682	SOFTWARE	lure	n/a	n/a	n/a	1
406.785	2.016636853	PHOTO	long	n/a	n/a	n/a	1
408.801	0.766656345	COMMODORE	lure	n/a	n/a	n/a	1
409.568	0.316661789	REPARATION	lure	n/a	n/a	n/a	1
409.884	0.716652581	PEASANT	lure	n/a	n/a	n/a	1
410.601	0.483385044	JAZZ	lure	n/a	n/a	n/a	1
411.085	0.683271033	JAILER	lure	n/a	n/a	n/a	1
411.768	0.683324215	EMBOLISM	lure	n/a	n/a	n/a	1
412.451	0.449993571	HEADBOARD	lure	n/a	n/a	n/a	1
412.901	0.400031638	NITWIT	lure	n/a	n/a	n/a	1
413.301	0.699952019	SCRAPBOOK	lure	n/a	n/a	n/a	1
414.001	0.383329056	STEPCHILD	lure	n/a	n/a	n/a	1
414.384	0.633323359	VIOLA	lure	n/a	n/a	n/a	1
415.018	0.633325728	BEACHHEAD	lure	n/a	n/a	n/a	1
415.651	0.616654999	HOOD	short	n/a	n/a	n/a	1
416.268	0.766718446	MAKEUP	lure	n/a	n/a	n/a	1
417.034	0.533265178	PANTHER	lure	n/a	n/a	n/a	1
417.568	0.599993498	BULB	lure	n/a	n/a	n/a	1
418.168	0.566655151	SABRE	lure	n/a	n/a	n/a	1
418.734	0.66665742	SEMICOLON	lure	n/a	n/a	n/a	1
419.401	0.333331439	IMBECILE	lure	n/a	n/a	n/a	1
419.734	0.499993337	RINK	lure	n/a	n/a	n/a	1
420.234	0.449988137	SUET	lure	n/a	n/a	n/a	1
420.684	0.437737964	CUTTER	lure	n/a	n/a	n/a	1
421.122	0.445627183	LOLLIPOP	lure	n/a	n/a	n/a	1
421.568	0.716617612	DUALISM	lure	n/a	n/a	n/a	1
422.284	0.683319093	ZENITH	lure	n/a	n/a	n/a	1
422.968	0.499992845	MOONLIGHT	lure	n/a	n/a	n/a	1
423.468	0.566661644	CRIER	lure	n/a	n/a	n/a	1
424.034	0.616655656	PIN	short	n/a	n/a	n/a	1
424.651	0.683323474	STARLET	lure	n/a	n/a	n/a	1
425.334	0.400000072	REFUGEE	lure	n/a	n/a	n/a	1
425.734	0.666651764	BARBARISM	lure	n/a	n/a	n/a	1
426.401	0.533325917	DUSTER	lure	n/a	n/a	n/a	1
426.934	0.566723685	IMMUNITY	lure	n/a	n/a	n/a	1
427.501	0.733263262	ADVISOR	lure	n/a	n/a	n/a	1
428.234	0.399995301	PEACEMAKER	lure	n/a	n/a	n/a	1
428.634	0.76665595	EARACHE	lure	n/a	n/a	n/a	1
429.401	0.56671155	RAMPART	lure	n/a	n/a	n/a	1
429.968	0.733264539	COMBAT	lure	n/a	n/a	n/a	1
430.701	0.551349343	BASKET	lure	n/a	n/a	n/a	1
431.252	0.548637134	DISQUIET	lure	n/a	n/a	n/a	1
431.801	0.366666257	PAINKILLER	lure	n/a	n/a	n/a	1
432.168	0.616657286	SAND	short	n/a	n/a	n/a	1
432.784	0.349989649	VANDALISM	lure	n/a	n/a	n/a	1
433.134	0.400053575	STRAIT	lure	n/a	n/a	n/a	1
433.534	0.566604574	BULLRING	lure	n/a	n/a	n/a	1
434.101	0.649990935	FORMAT	lure	n/a	n/a	n/a	1
434.751	0.650030908	COVERALL	lure	n/a	n/a	n/a	1
435.401	0.516616246	MAID	lure	n/a	n/a	n/a	1
435.917	0.583342699	PASSPORT	lure	n/a	n/a	n/a	1
436.501	0.716643176	TRACER	lure	n/a	n/a	n/a	1
437.217	0.433321834	RUSTLER	lure	n/a	n/a	n/a	1
437.651	0.549997816	ALABASTER	lure	n/a	n/a	n/a	1
438.201	0.733323863	PARAPHRASE	lure	n/a	n/a	n/a	1
438.934	0.766712632	MONOTONE	lure	n/a	n/a	n/a	1
439.701	0.633261582	OMELETTE	lure	n/a	n/a	n/a	1
440.334	0.516658947	HANDLER	lure	n/a	n/a	n/a	1
440.851	2.016644998	GOLF	long	n/a	n/a	n/a	1
442.867	0.449994386	NUB	lure	n/a	n/a	n/a	1
443.317	0.333322214	PINWHEEL	lure	n/a	n/a	n/a	1
443.651	0.433333576	PERISCOPE	lure	n/a	n/a	n/a	1
444.084	0.483320238	DEPOSITORY	lure	n/a	n/a	n/a	1
444.567	0.383328049	TAMBOURINE	lure	n/a	n/a	n/a	1
444.951	0.433331613	LEATHER	lure	n/a	n/a	n/a	1
445.384	0.716715906	CHEESECAKE	lure	n/a	n/a	n/a	1
446.101	0.399932786	BARNACLE	lure	n/a	n/a	n/a	1
446.501	0.633328682	FEET	lure	n/a	n/a	n/a	1
447.134	0.383327034	ORDINANCE	lure	n/a	n/a	n/a	1
447.517	0.483324929	CHEAPSKATE	lure	n/a	n/a	n/a	1
448.001	0.349993503	HANDBAG	lure	n/a	n/a	n/a	1
448.351	0.583328709	ARCHDUKE	lure	n/a	n/a	n/a	1
448.934	0.753234708	PARADOX	lure	n/a	n/a	n/a	1
449.687	1.017576781	CRANBERRY	fruit	607	2	2	1
450.705	0.563565814	VOLATILITY	lure	n/a	n/a	n/a	1
451.268	0.782293777	FOLK	lure	n/a	n/a	n/a	1
452.051	0.733326207	SOMEONE	lure	n/a	n/a	n/a	1
452.784	0.433275651	DISTENSION	lure	n/a	n/a	n/a	1
453.217	0.416661013	RESENTMENT	lure	n/a	n/a	n/a	1
453.634	0.533325394	RECITATIVE	lure	n/a	n/a	n/a	1
454.167	0.749988991	ISOLATION	lure	n/a	n/a	n/a	1
454.917	0.733323296	CRYSTAL	lure	n/a	n/a	n/a	1
455.651	0.616660099	ARROGANCE	lure	n/a	n/a	n/a	1
456.267	0.550039319	IMITATION	lure	n/a	n/a	n/a	1
456.817	0.649942456	ELLIPSE	lure	n/a	n/a	n/a	1
457.467	0.800046609	BECK	lure	n/a	n/a	n/a	1
458.267	0.449937413	EQUATOR	lure	n/a	n/a	n/a	1
458.717	0.733367968	WINGSPAN	lure	n/a	n/a	n/a	1
459.451	0.483282801	CHUTE	lure	n/a	n/a	n/a	1
459.934	0.616704919	SUn/aAY	lure	n/a	n/a	n/a	1
460.55	0.566605838	HYPOCRISY	lure	n/a	n/a	n/a	1
461.117	0.40004369	NEWSLETTER	lure	n/a	n/a	n/a	1
461.517	0.633280711	FALLOFF	lure	n/a	n/a	n/a	1
462.15	0.549992893	DECORATOR	lure	n/a	n/a	n/a	1
462.7	0.583369583	DISC	lure	n/a	n/a	n/a	1
463.284	0.766668815	SHEEN	lure	n/a	n/a	n/a	1
464.05	0.666594545	SATIN	lure	n/a	n/a	n/a	1
464.717	n/a	TAXONOMY	lure	n/a	n/a	n/a	1