onset	duration	stim	cond	RT	resp	cresp	acc
4.053	0.683377289	SHORTAGE	lure	n/a	n/a	n/a	1
4.736	0.349945329	LAB	lure	n/a	n/a	n/a	1
5.086	0.733323092	KILLJOY	lure	n/a	n/a	n/a	1
5.819	0.316662401	SOMETHING	lure	n/a	n/a	n/a	1
6.136	0.466698384	MEAT	lure	n/a	n/a	n/a	1
6.603	0.399957168	PRETEXT	lure	n/a	n/a	n/a	1
7.003	0.616720981	HEALTH	lure	n/a	n/a	n/a	1
7.619	0.599928112	CRESCENDO	lure	n/a	n/a	n/a	1
8.219	2.016639791	RAIL	long	n/a	n/a	n/a	1
10.236	0.549989978	CONTIGUITY	lure	n/a	n/a	n/a	1
10.786	0.666657649	PISTACHIO	lure	n/a	n/a	n/a	1
11.453	0.549991694	FARMER	lure	n/a	n/a	n/a	1
12.003	0.433327835	IMPROVISER	lure	n/a	n/a	n/a	1
12.436	0.666658348	DARKROOM	lure	n/a	n/a	n/a	1
13.103	0.649990093	CORRUPTER	lure	n/a	n/a	n/a	1
13.753	0.400067224	EYESORE	lure	n/a	n/a	n/a	1
14.153	0.749982567	PORTAL	lure	n/a	n/a	n/a	1
14.903	0.533259863	PRELUDE	lure	n/a	n/a	n/a	1
15.436	0.349992298	SCAR	lure	n/a	n/a	n/a	1
15.786	0.583391104	MIGRATION	lure	n/a	n/a	n/a	1
16.369	2.016576145	CORD	long	n/a	n/a	n/a	1
18.386	0.36666035	TUMBLEWEED	lure	n/a	n/a	n/a	1
18.752	0.449989935	VIOLIN	lure	n/a	n/a	n/a	1
19.202	0.583390423	LOCKER	lure	n/a	n/a	n/a	1
19.786	0.449932078	PIPER	lure	n/a	n/a	n/a	1
20.236	0.499992855	DOLLAR	lure	n/a	n/a	n/a	1
20.736	0.667149472	BUOYANCY	lure	n/a	n/a	n/a	1
21.403	0.366170382	CONVICTION	lure	n/a	n/a	n/a	1
21.769	0.550088629	POTPOURRI	lure	n/a	n/a	n/a	1
22.319	0.649957705	ELK	lure	n/a	n/a	n/a	1
22.969	0.683318902	DETERRENCE	lure	n/a	n/a	n/a	1
23.652	0.44993919	PUDDING	lure	n/a	n/a	n/a	1
24.102	0.333323757	ELECTRODE	lure	n/a	n/a	n/a	1
24.436	0.616660272	SAWDUST	short	n/a	n/a	n/a	1
25.052	0.666652165	SUNSHADE	lure	n/a	n/a	n/a	1
25.719	0.733326512	REDEMPTION	lure	n/a	n/a	n/a	1
26.452	0.5333267	OPERATION	lure	n/a	n/a	n/a	1
26.986	0.333328747	GEOLOGIST	lure	n/a	n/a	n/a	1
27.319	0.533326853	FINCH	lure	n/a	n/a	n/a	1
27.852	0.433371752	LOCALITY	lure	n/a	n/a	n/a	1
28.286	0.599942292	MUSCLEMEN	lure	n/a	n/a	n/a	1
28.886	0.416660404	LOGICIAN	lure	n/a	n/a	n/a	1
29.302	0.366665959	INFINITY	lure	n/a	n/a	n/a	1
29.669	0.59999121	GESTURE	lure	n/a	n/a	n/a	1
30.269	0.433383757	DOORWAY	lure	n/a	n/a	n/a	1
30.702	0.749929805	ADJECTIVE	lure	n/a	n/a	n/a	1
31.452	0.36666324	GADGET	lure	n/a	n/a	n/a	1
31.819	0.633326366	DWELLER	lure	n/a	n/a	n/a	1
32.452	2.016638767	GOLF	long	n/a	n/a	n/a	1
34.469	0.733317763	DIALOGUE	lure	n/a	n/a	n/a	1
35.202	0.683327673	ICECAP	lure	n/a	n/a	n/a	1
35.886	0.716657453	PRESIDENCY	lure	n/a	n/a	n/a	1
36.602	0.549992008	OFFENCE	lure	n/a	n/a	n/a	1
37.152	0.716707527	CENSORSHIP	lure	n/a	n/a	n/a	1
37.869	0.567281737	BLOCKAGE	lure	n/a	n/a	n/a	1
38.436	0.449319764	LYRICIST	lure	n/a	n/a	n/a	1
38.886	0.499990763	LUNACY	lure	n/a	n/a	n/a	1
39.386	0.383326006	SOMEBODY	lure	n/a	n/a	n/a	1
39.769	0.549997945	UNTRUTH	lure	n/a	n/a	n/a	1
40.319	0.516657673	SESAME	lure	n/a	n/a	n/a	1
40.835	1.016655684	ORANGE	fruit	737	2	2	1
41.852	0.649987922	IRONY	lure	n/a	n/a	n/a	1
42.502	0.433376018	PURITY	lure	n/a	n/a	n/a	1
42.936	0.449944692	WASHBOARD	lure	n/a	n/a	n/a	1
43.385	0.533322642	GAGGLE	lure	n/a	n/a	n/a	1
43.919	0.333332238	CONTENTION	lure	n/a	n/a	n/a	1
44.252	0.550053739	MONOGAMY	lure	n/a	n/a	n/a	1
44.802	0.766590888	HITTER	lure	n/a	n/a	n/a	1
45.569	0.383376347	MEAL	lure	n/a	n/a	n/a	1
45.952	0.749944991	TERRYCLOTH	lure	n/a	n/a	n/a	1
46.702	0.316723338	ARMCHAIR	lure	n/a	n/a	n/a	1
47.019	0.583263897	ASPIRIN	lure	n/a	n/a	n/a	1
47.602	0.333329428	GOBLIN	lure	n/a	n/a	n/a	1
47.935	0.666708296	TIMBER	lure	n/a	n/a	n/a	1
48.602	0.416681778	TOOTHBRUSH	lure	n/a	n/a	n/a	1
49.019	1.016580969	MANGO	fruit	906	2	2	1
50.035	0.702409255	BISCUIT	lure	n/a	n/a	n/a	1
50.738	0.750570014	CAESAREAN	lure	n/a	n/a	n/a	1
51.488	0.530328218	GRADATION	lure	n/a	n/a	n/a	1
52.019	0.733320181	ROUGHNECK	lure	n/a	n/a	n/a	1
52.752	0.716657658	MEMOIR	lure	n/a	n/a	n/a	1
53.469	0.366710074	SANDSTONE	lure	n/a	n/a	n/a	1
53.835	0.466610905	SOAPSTONE	lure	n/a	n/a	n/a	1
54.302	0.416661359	DECEIT	lure	n/a	n/a	n/a	1
54.719	0.383327545	DANDELION	lure	n/a	n/a	n/a	1
55.102	0.566660085	CARRIAGE	lure	n/a	n/a	n/a	1
55.669	0.550038652	HANDMAID	lure	n/a	n/a	n/a	1
56.219	0.649943454	CENTIMETER	lure	n/a	n/a	n/a	1
56.869	0.416656283	TIARA	lure	n/a	n/a	n/a	1
57.285	0.649995818	HOOD	short	n/a	n/a	n/a	1
57.935	0.716715883	ROLLER	lure	n/a	n/a	n/a	1
58.652	0.533267993	ADVOCACY	lure	n/a	n/a	n/a	1
59.185	0.34999325	BREADLINE	lure	n/a	n/a	n/a	1
59.535	0.716655689	PILLOWCASE	lure	n/a	n/a	n/a	1
60.252	0.554246156	PAUPER	lure	n/a	n/a	n/a	1
60.806	0.412409599	CUB	lure	n/a	n/a	n/a	1
61.219	0.666656135	STUDIO	lure	n/a	n/a	n/a	1
61.885	0.599990583	GUNPOWDER	lure	n/a	n/a	n/a	1
62.485	0.549992366	PENTAGON	lure	n/a	n/a	n/a	1
63.035	0.499989402	SHAMROCK	lure	n/a	n/a	n/a	1
63.535	0.699995227	IMMENSITY	lure	n/a	n/a	n/a	1
64.235	0.41666064	IRONSIDE	lure	n/a	n/a	n/a	1
64.652	0.466659797	BATH	lure	n/a	n/a	n/a	1
65.118	0.633324256	RECESSION	lure	n/a	n/a	n/a	1
65.752	2.016638185	PHOTO	long	n/a	n/a	n/a	1
67.768	0.633321329	WAISTLINE	lure	n/a	n/a	n/a	1
68.402	0.63332783	DISHWATER	lure	n/a	n/a	n/a	1
69.035	0.566659789	THINKER	lure	n/a	n/a	n/a	1
69.602	0.349993875	COPIER	lure	n/a	n/a	n/a	1
69.952	0.466660069	BENEFACTOR	lure	n/a	n/a	n/a	1
70.418	0.366662661	CORNEA	lure	n/a	n/a	n/a	1
70.785	0.749991277	COMMITTEE	lure	n/a	n/a	n/a	1
71.535	0.449990283	DRONE	lure	n/a	n/a	n/a	1
71.985	0.616659715	MINISTRY	lure	n/a	n/a	n/a	1
72.602	0.349995157	DOLPHIN	lure	n/a	n/a	n/a	1
72.952	0.716656328	CHOPSTICK	lure	n/a	n/a	n/a	1
73.668	0.6166579	INEPTITUDE	lure	n/a	n/a	n/a	1
74.285	1.018615835	APPLE	fruit	696	2	2	1
75.304	0.416562662	RODEO	lure	n/a	n/a	n/a	1
75.72	0.781457646	STEREO	lure	n/a	n/a	n/a	1
76.502	0.366660511	BACKGROUND	lure	n/a	n/a	n/a	1
76.868	0.666659178	BLOCKHEAD	lure	n/a	n/a	n/a	1
77.535	0.583324027	STEWARD	lure	n/a	n/a	n/a	1
78.118	0.399994372	PATELLA	lure	n/a	n/a	n/a	1
78.518	0.500049389	PREMIUM	lure	n/a	n/a	n/a	1
79.018	0.600764468	KNOWLEDGE	lure	n/a	n/a	n/a	1
79.619	0.699218593	HOUSEBOAT	lure	n/a	n/a	n/a	1
80.318	0.566600762	INFIDELITY	lure	n/a	n/a	n/a	1
80.885	0.750036058	TRANSFER	lure	n/a	n/a	n/a	1
81.635	0.666610862	DARLING	lure	n/a	n/a	n/a	1
82.302	0.533372534	SPARSITY	lure	n/a	n/a	n/a	1
82.835	0.616613839	SAND	short	n/a	n/a	n/a	1
83.452	0.48332559	CARETAKER	lure	n/a	n/a	n/a	1
83.935	0.699989653	KAISER	lure	n/a	n/a	n/a	1
84.635	0.333385254	ENMITY	lure	n/a	n/a	n/a	1
84.968	0.516660033	DECENCY	lure	n/a	n/a	n/a	1
85.485	0.683268473	UNDERTAKER	lure	n/a	n/a	n/a	1
86.168	0.533383199	INDUSTRY	lure	n/a	n/a	n/a	1
86.702	0.716653277	IRRITANT	lure	n/a	n/a	n/a	1
87.418	0.783333799	WOODWIND	lure	n/a	n/a	n/a	1
88.202	0.566647709	DEVOTION	lure	n/a	n/a	n/a	1
88.768	0.333327562	GERM	lure	n/a	n/a	n/a	1
89.102	0.667159518	TOLERATION	lure	n/a	n/a	n/a	1
89.769	0.632826497	PRECEDENCE	lure	n/a	n/a	n/a	1
90.402	0.349935844	CONJUNCT	lure	n/a	n/a	n/a	1
90.751	1.016653404	PINEAPPLE	fruit	709	2	2	1
91.768	0.333328032	NEGATION	lure	n/a	n/a	n/a	1
92.101	0.650045777	ANYBODY	lure	n/a	n/a	n/a	1
92.751	0.716660375	POPULATION	lure	n/a	n/a	n/a	1
93.468	0.649932	TREATMENT	lure	n/a	n/a	n/a	1
94.118	0.633325222	BETRAYAL	lure	n/a	n/a	n/a	1
94.751	0.733323251	BROCCOLI	lure	n/a	n/a	n/a	1
95.485	0.733322375	GALLANTRY	lure	n/a	n/a	n/a	1
96.218	0.736898447	PAINTER	lure	n/a	n/a	n/a	1
96.955	0.629750574	DYNAMO	lure	n/a	n/a	n/a	1
97.585	0.333327158	CACHE	lure	n/a	n/a	n/a	1
97.918	0.666656421	MERCY	lure	n/a	n/a	n/a	1
98.585	0.449994013	BOBSLED	lure	n/a	n/a	n/a	1
99.035	0.616658735	COLUMN	short	n/a	n/a	n/a	1
99.651	0.499992936	CHLORIDE	lure	n/a	n/a	n/a	1
100.151	0.533326863	OPINION	lure	n/a	n/a	n/a	1
100.685	0.599992177	SUPERVISOR	lure	n/a	n/a	n/a	1
101.285	0.44999206	HIPSTER	lure	n/a	n/a	n/a	1
101.735	0.366661475	VISITATION	lure	n/a	n/a	n/a	1
102.101	0.499992864	MARQUEE	lure	n/a	n/a	n/a	1
102.601	0.499993352	SUPPER	lure	n/a	n/a	n/a	1
103.101	0.666658819	PARTRIDGE	lure	n/a	n/a	n/a	1
103.768	0.366660481	OUTRIGGER	lure	n/a	n/a	n/a	1
104.135	0.466660212	WATCHDOG	lure	n/a	n/a	n/a	1
104.601	0.683322138	GUITAR	lure	n/a	n/a	n/a	1
105.285	0.466662094	MOTORBOAT	lure	n/a	n/a	n/a	1
105.751	0.733323259	INTRICACY	lure	n/a	n/a	n/a	1
106.485	0.516660312	RUNT	lure	n/a	n/a	n/a	1
107.001	0.716656099	CARRYOVER	lure	n/a	n/a	n/a	1
107.718	2.016638869	RATTLE	long	n/a	n/a	n/a	1
109.735	0.650058447	DEFEATISM	lure	n/a	n/a	n/a	1
110.385	0.733298354	SURNAME	lure	n/a	n/a	n/a	1
111.118	0.466616644	MAILBOX	lure	n/a	n/a	n/a	1
111.585	0.683382445	RERUN	lure	n/a	n/a	n/a	1
112.268	0.683265717	PHARYNX	lure	n/a	n/a	n/a	1
112.951	0.416659725	HIGHSCHOOL	lure	n/a	n/a	n/a	1
113.368	0.333386541	COVERLET	lure	n/a	n/a	n/a	1
113.701	0.720367546	BIGOT	lure	n/a	n/a	n/a	1
114.422	0.629616376	CRANNY	lure	n/a	n/a	n/a	1
115.051	0.467515709	FOREBEAR	lure	n/a	n/a	n/a	1
115.519	0.632408637	BANNER	lure	n/a	n/a	n/a	1
116.151	2.016638731	PAGE	long	n/a	n/a	n/a	1
118.168	0.666657847	LAWSUIT	lure	n/a	n/a	n/a	1
118.834	0.516658217	LUXURY	lure	n/a	n/a	n/a	1
119.351	0.633325118	TEAR	lure	n/a	n/a	n/a	1
119.984	0.733319122	GORILLA	lure	n/a	n/a	n/a	1
120.718	0.616662968	GALLUP	lure	n/a	n/a	n/a	1
121.334	0.499994016	FLOWERBED	lure	n/a	n/a	n/a	1
121.834	0.633322189	DEW	lure	n/a	n/a	n/a	1
122.468	0.699992242	AIRWAY	lure	n/a	n/a	n/a	1
123.168	0.31666056	CABOODLE	lure	n/a	n/a	n/a	1
123.484	0.599991806	COMPLEXITY	lure	n/a	n/a	n/a	1
124.084	0.683324799	SPINDLE	lure	n/a	n/a	n/a	1
124.768	1.016650726	GRAPE	fruit	717	2	2	1
125.784	0.483327869	JIFFY	lure	n/a	n/a	n/a	1
126.268	0.38338734	SADDLEBAG	lure	n/a	n/a	n/a	1
126.651	0.383269377	ALBINO	lure	n/a	n/a	n/a	1
127.034	0.749989138	FINANCIER	lure	n/a	n/a	n/a	1
127.784	0.583322471	ANALYZER	lure	n/a	n/a	n/a	1
128.368	0.383330986	CURLER	lure	n/a	n/a	n/a	1
128.751	0.51665844	VISION	lure	n/a	n/a	n/a	1
129.268	0.599987542	DIPPER	lure	n/a	n/a	n/a	1
129.868	0.400060001	KARMA	lure	n/a	n/a	n/a	1
130.268	0.504743671	GESTALT	lure	n/a	n/a	n/a	1
130.772	0.430336374	PAL	lure	n/a	n/a	n/a	1
131.203	0.464834505	FIREMAN	lure	n/a	n/a	n/a	1
131.668	0.749994602	PRESIDENT	lure	n/a	n/a	n/a	1
132.418	0.76665585	FIELDSMAN	lure	n/a	n/a	n/a	1
133.184	1.016653759	PEAR	fruit	724	2	2	1
134.201	0.616990966	DAYLIGHT	lure	n/a	n/a	n/a	1
134.818	0.566325514	WOODPILE	lure	n/a	n/a	n/a	1
135.384	0.333327726	SPACECRAFT	lure	n/a	n/a	n/a	1
135.718	0.716717563	MONOTONY	lure	n/a	n/a	n/a	1
136.434	0.716595643	COYOTE	lure	n/a	n/a	n/a	1
137.151	0.383327437	INFAMY	lure	n/a	n/a	n/a	1
137.534	0.766652843	LITER	lure	n/a	n/a	n/a	1
138.301	0.350059388	HOORAY	lure	n/a	n/a	n/a	1
138.651	0.616598339	HALL	lure	n/a	n/a	n/a	1
139.267	0.699989671	ETHNOLOGY	lure	n/a	n/a	n/a	1
139.967	0.466658839	MONOGRAPH	lure	n/a	n/a	n/a	1
140.434	0.433328973	BOOKLET	lure	n/a	n/a	n/a	1
140.867	0.716656472	ALBUM	lure	n/a	n/a	n/a	1
141.584	0.6166575	PIN	short	n/a	n/a	n/a	1
142.201	0.383373305	RECRUITER	lure	n/a	n/a	n/a	1
142.584	0.633279828	VINEYARD	lure	n/a	n/a	n/a	1
143.217	0.366717613	ENDOWMENT	lure	n/a	n/a	n/a	1
143.584	0.483327438	SANCTUARY	lure	n/a	n/a	n/a	1
144.067	0.484982189	WHEAT	lure	n/a	n/a	n/a	1
144.552	0.581613423	TUB	lure	n/a	n/a	n/a	1
145.134	0.600046891	PARAKEET	lure	n/a	n/a	n/a	1
145.734	0.749932878	HAKE	lure	n/a	n/a	n/a	1
146.484	0.7333245	DEFERENCE	lure	n/a	n/a	n/a	1
147.217	0.74998503	GAINER	lure	n/a	n/a	n/a	1
147.967	0.366664273	COCKROACH	lure	n/a	n/a	n/a	1
148.334	0.666713862	ANTELOPE	lure	n/a	n/a	n/a	1
149.001	0.566661208	COMBO	lure	n/a	n/a	n/a	1
149.567	0.616597998	CONTRACT	short	n/a	n/a	n/a	1
150.184	0.449995394	SEMINAR	lure	n/a	n/a	n/a	1
150.634	0.569927062	BOREDOM	lure	n/a	n/a	n/a	1
151.204	0.596724182	GRADUATION	lure	n/a	n/a	n/a	1
151.801	0.599991089	REPUTATION	lure	n/a	n/a	n/a	1
152.401	0.516660249	RITUAL	lure	n/a	n/a	n/a	1
152.917	0.333327374	MARMALADE	lure	n/a	n/a	n/a	1
153.251	0.449993202	PLAGIARISM	lure	n/a	n/a	n/a	1
153.701	0.64999053	GUY	lure	n/a	n/a	n/a	1
154.351	0.519217319	WITCH	lure	n/a	n/a	n/a	1
154.87	0.39756187	GRANDCHILD	lure	n/a	n/a	n/a	1
155.267	0.316537815	GOALPOST	lure	n/a	n/a	n/a	1
155.584	0.566658877	ADDICTION	lure	n/a	n/a	n/a	1
156.151	0.716657377	INSTEP	lure	n/a	n/a	n/a	1
156.867	0.366660779	PORTRAIT	lure	n/a	n/a	n/a	1
157.234	0.399993387	IMMEDIACY	lure	n/a	n/a	n/a	1
157.634	2.016641125	VAULT	long	n/a	n/a	n/a	1
159.651	0.416658552	DISCIPLE	lure	n/a	n/a	n/a	1
160.067	0.399994851	LID	lure	n/a	n/a	n/a	1
160.467	0.449994711	DUCKWEED	lure	n/a	n/a	n/a	1
160.917	0.633323886	MARINER	lure	n/a	n/a	n/a	1
161.55	0.499994299	UNDERSHIRT	lure	n/a	n/a	n/a	1
162.05	0.733323993	NONSMOKER	lure	n/a	n/a	n/a	1
162.784	0.35182677	PRIVILEGE	lure	n/a	n/a	n/a	1
163.136	0.381495663	PROTEST	lure	n/a	n/a	n/a	1
163.517	0.653634878	VICINITY	lure	n/a	n/a	n/a	1
164.171	0.579682179	SWORDSMAN	lure	n/a	n/a	n/a	1
164.75	0.716654971	PLANELOAD	lure	n/a	n/a	n/a	1
165.467	0.766654965	POLARITY	lure	n/a	n/a	n/a	1
166.234	2.01663925	DRUM	long	n/a	n/a	n/a	1
168.25	0.600033924	ARBOR	lure	n/a	n/a	n/a	1
168.85	0.66661483	TERRY	lure	n/a	n/a	n/a	1
169.517	0.649991246	TURNOVER	lure	n/a	n/a	n/a	1
170.167	0.483323663	TONER	lure	n/a	n/a	n/a	1
170.65	0.333330967	DELIVERY	lure	n/a	n/a	n/a	1
170.984	0.535329552	TITLE	lure	n/a	n/a	n/a	1
171.519	0.631320269	BANDIT	lure	n/a	n/a	n/a	1
172.15	0.766658211	EXEMPTION	lure	n/a	n/a	n/a	1
172.917	0.416659429	DISCOVERER	lure	n/a	n/a	n/a	1
173.334	0.383329452	LATECOMER	lure	n/a	n/a	n/a	1
173.717	0.349994687	WHIRLWIND	lure	n/a	n/a	n/a	1
174.067	0.616657166	SWORD	short	n/a	n/a	n/a	1
174.684	0.368281516	MISCONDUCT	lure	n/a	n/a	n/a	1
175.052	0.715093059	CESSION	lure	n/a	n/a	n/a	1
175.767	0.366606916	GRIFFIN	lure	n/a	n/a	n/a	1
176.134	0.733322089	SUBJECTION	lure	n/a	n/a	n/a	1
176.867	0.383327979	TRUANCY	lure	n/a	n/a	n/a	1
177.25	0.333329504	FREEWAY	lure	n/a	n/a	n/a	1
177.584	0.800054741	SIDECAR	lure	n/a	n/a	n/a	1
178.384	0.733256537	MONASTERY	lure	n/a	n/a	n/a	1
179.117	0.650048517	INDIGNITY	lure	n/a	n/a	n/a	1
179.767	0.383270635	CONTESTANT	lure	n/a	n/a	n/a	1
180.15	0.666658008	DOOR	lure	n/a	n/a	n/a	1
180.817	0.383327427	INVENTION	lure	n/a	n/a	n/a	1
181.2	0.649990732	NIGHTMARE	lure	n/a	n/a	n/a	1
181.85	0.435966432	ADHESION	lure	n/a	n/a	n/a	1
182.286	0.614561595	ATLAS	short	n/a	n/a	n/a	1
182.901	0.582838398	ASCETIC	lure	n/a	n/a	n/a	1
183.484	0.716599803	ROVER	lure	n/a	n/a	n/a	1
184.2	0.350058924	CRUTCH	lure	n/a	n/a	n/a	1
184.55	0.549929474	INVALIDISM	lure	n/a	n/a	n/a	1
185.1	0.450050584	TESTER	lure	n/a	n/a	n/a	1
185.55	0.549935802	BACKSTROKE	lure	n/a	n/a	n/a	1
186.1	0.533381401	WEEK	lure	n/a	n/a	n/a	1
186.634	0.516663016	HOPSCOTCH	lure	n/a	n/a	n/a	1
187.15	0.483323212	HERMITAGE	lure	n/a	n/a	n/a	1
187.634	0.433268605	MODIFIER	lure	n/a	n/a	n/a	1
188.067	0.566659649	PAWNSHOP	lure	n/a	n/a	n/a	1
188.633	0.466661844	TOLERANCE	lure	n/a	n/a	n/a	1
189.1	0.499993241	WATERCOLOR	lure	n/a	n/a	n/a	1
189.6	0.566659682	MECHANISM	lure	n/a	n/a	n/a	1
190.167	0.666656459	ADRENALIN	lure	n/a	n/a	n/a	1
190.833	0.616657409	RACKET	short	n/a	n/a	n/a	1
191.45	0.383328916	SLUGGER	lure	n/a	n/a	n/a	1
191.833	0.749988309	LOGARITHM	lure	n/a	n/a	n/a	1
192.583	0.666659682	FIELDWORK	lure	n/a	n/a	n/a	1
193.25	0.733321154	MEMBERSHIP	lure	n/a	n/a	n/a	1
193.983	0.683323588	PULSAR	lure	n/a	n/a	n/a	1
194.667	0.383327643	ORIGIN	lure	n/a	n/a	n/a	1
195.05	0.499993493	LADDER	lure	n/a	n/a	n/a	1
195.55	0.670203138	EXTRACTION	lure	n/a	n/a	n/a	1
196.22	0.663568456	ELONGATION	lure	n/a	n/a	n/a	1
196.884	0.382871026	DETECTOR	lure	n/a	n/a	n/a	1
197.267	0.36666118	DISPARITY	lure	n/a	n/a	n/a	1
197.633	0.566659892	HANDYMEN	lure	n/a	n/a	n/a	1
198.2	0.549992426	VARIETY	lure	n/a	n/a	n/a	1
198.75	2.016637824	PENDULUM	long	n/a	n/a	n/a	1
200.767	0.549992992	CONCERT	lure	n/a	n/a	n/a	1
201.317	0.633323099	RINGER	lure	n/a	n/a	n/a	1
201.95	0.383330084	ALTAR	lure	n/a	n/a	n/a	1
202.333	0.366660901	SPHINX	lure	n/a	n/a	n/a	1
202.7	0.516659575	WOODMAN	lure	n/a	n/a	n/a	1
203.217	0.54999268	PROPENSITY	lure	n/a	n/a	n/a	1
203.767	0.733321913	PEDESTAL	lure	n/a	n/a	n/a	1
204.5	0.349994952	NAPE	lure	n/a	n/a	n/a	1
204.85	0.333324541	GHOST	lure	n/a	n/a	n/a	1
205.183	0.399998016	OYSTER	lure	n/a	n/a	n/a	1
205.583	0.683324691	SCARFACE	lure	n/a	n/a	n/a	1
206.267	0.566716128	CRUELTY	lure	n/a	n/a	n/a	1
206.833	0.616601192	PICK	short	n/a	n/a	n/a	1
207.45	0.450053804	TABLOID	lure	n/a	n/a	n/a	1
207.9	0.583265538	PHOTOFLASH	lure	n/a	n/a	n/a	1
208.483	0.700047012	SCHOOLWORK	lure	n/a	n/a	n/a	1
209.183	0.566601992	PUTTER	lure	n/a	n/a	n/a	1
209.75	0.316663223	MONOXIDE	lure	n/a	n/a	n/a	1
210.066	0.399988422	SEEKER	lure	n/a	n/a	n/a	1
210.466	0.516722871	APRICOT	lure	n/a	n/a	n/a	1
210.983	0.449935183	HOSTILITY	lure	n/a	n/a	n/a	1
211.433	0.449993275	SETTLEMENT	lure	n/a	n/a	n/a	1
211.883	0.616659545	JAR	lure	n/a	n/a	n/a	1
212.5	0.650035166	RIB	lure	n/a	n/a	n/a	1
213.15	0.33332979	TOMAHAWK	lure	n/a	n/a	n/a	1
213.483	0.666669385	EDITION	lure	n/a	n/a	n/a	1
214.15	0.466600642	SHEEPSKIN	lure	n/a	n/a	n/a	1
214.616	0.400041512	PROVIDER	lure	n/a	n/a	n/a	1
215.016	2.016593616	GIFT	long	n/a	n/a	n/a	1
217.033	0.699988157	SPECTRA	lure	n/a	n/a	n/a	1
217.733	0.56665997	CERTAINTY	lure	n/a	n/a	n/a	1
218.3	0.516657825	BEET	lure	n/a	n/a	n/a	1
218.816	0.45005112	TAXICAB	lure	n/a	n/a	n/a	1
219.266	0.483270302	STOOL	lure	n/a	n/a	n/a	1
219.75	0.766655645	GLADE	lure	n/a	n/a	n/a	1
220.516	0.433402251	OUTFIT	lure	n/a	n/a	n/a	1
220.95	0.649915524	BONSAI	lure	n/a	n/a	n/a	1
221.6	0.633325269	PERSONNEL	lure	n/a	n/a	n/a	1
222.233	0.366661515	SONGBIRD	lure	n/a	n/a	n/a	1
222.6	0.316661319	BUREAUCRAT	lure	n/a	n/a	n/a	1
222.916	0.616786059	RACCOON	lure	n/a	n/a	n/a	1
223.533	0.599864417	PERIOD	lure	n/a	n/a	n/a	1
224.133	0.466720077	CROUTON	lure	n/a	n/a	n/a	1
224.6	0.76659564	EFFICIENCY	lure	n/a	n/a	n/a	1
225.366	0.350038516	ENDEARMENT	lure	n/a	n/a	n/a	1
225.716	0.666673052	WHACKER	lure	n/a	n/a	n/a	1
226.383	0.516601397	SANDER	lure	n/a	n/a	n/a	1
226.9	n/a	WINDSTORM	lure	n/a	n/a	n/a	1
238.016	0.63332578	INSANITY	lure	n/a	n/a	n/a	1
238.649	0.733322722	LIFEGUARD	lure	n/a	n/a	n/a	1
239.383	0.533325562	RULER	lure	n/a	n/a	n/a	1
239.916	0.516658891	CONVENTION	lure	n/a	n/a	n/a	1
240.433	0.416945953	COOKER	lure	n/a	n/a	n/a	1
240.85	0.566374448	TINFOIL	lure	n/a	n/a	n/a	1
241.416	1.016652874	BANANA	fruit	653	2	2	1
242.433	0.633323848	PERMAFROST	lure	n/a	n/a	n/a	1
243.066	0.684132085	SPOILER	lure	n/a	n/a	n/a	1
243.75	0.582516538	RESPONSE	lure	n/a	n/a	n/a	1
244.333	0.433328845	GIST	lure	n/a	n/a	n/a	1
244.766	0.666655865	PEELER	lure	n/a	n/a	n/a	1
245.433	0.650048985	ADMIRAL	lure	n/a	n/a	n/a	1
246.083	0.666658637	ROSTER	lure	n/a	n/a	n/a	1
246.749	0.733263093	LORE	lure	n/a	n/a	n/a	1
247.483	0.399994603	ABSTINENCE	lure	n/a	n/a	n/a	1
247.883	0.566718842	ASSASSIN	lure	n/a	n/a	n/a	1
248.449	0.666652982	DREAMER	lure	n/a	n/a	n/a	1
249.116	0.416666675	SOLITAIRE	lure	n/a	n/a	n/a	1
249.533	1.049987244	KIWI	fruit	712	2	2	1
250.583	0.38326636	SOCKET	lure	n/a	n/a	n/a	1
250.966	0.483326084	YACHT	lure	n/a	n/a	n/a	1
251.449	0.499991726	BRUSHFIRE	lure	n/a	n/a	n/a	1
251.949	0.43332811	CAPACITOR	lure	n/a	n/a	n/a	1
252.383	0.449994088	MEMO	lure	n/a	n/a	n/a	1
252.833	0.583325172	TEDDY	lure	n/a	n/a	n/a	1
253.416	0.51671741	TOXIN	lure	n/a	n/a	n/a	1
253.933	0.45226191	OUTPOST	lure	n/a	n/a	n/a	1
254.385	0.481058673	ARK	lure	n/a	n/a	n/a	1
254.866	0.43326811	DETERRENT	lure	n/a	n/a	n/a	1
255.299	0.316718624	FEATHERBED	lure	n/a	n/a	n/a	1
255.616	0.466605403	PRAGMATIST	lure	n/a	n/a	n/a	1
256.082	0.516659054	GOWN	lure	n/a	n/a	n/a	1
256.599	0.733364823	NOMAD	lure	n/a	n/a	n/a	1
257.333	0.400014006	WORKSHOP	lure	n/a	n/a	n/a	1
257.733	1.020786248	CANTELOUPE	fruit	752	2	2	1
258.753	0.581564588	JUDGEMENT	lure	n/a	n/a	n/a	1
259.335	0.551567612	EUTHANASIA	lure	n/a	n/a	n/a	1
259.886	0.699569014	BIRTHDAY	lure	n/a	n/a	n/a	1
260.586	0.546464173	CRAWFISH	lure	n/a	n/a	n/a	1
261.132	0.699928771	VANILLA	lure	n/a	n/a	n/a	1
261.832	0.549994135	SUPPRESSOR	lure	n/a	n/a	n/a	1
262.382	0.750048475	BINGO	lure	n/a	n/a	n/a	1
263.132	0.716648745	EMPHYSEMA	lure	n/a	n/a	n/a	1
263.849	0.749938465	RESCRIPT	lure	n/a	n/a	n/a	1
264.599	0.55004726	CREVICE	lure	n/a	n/a	n/a	1
265.149	0.749934858	GUNPLAY	lure	n/a	n/a	n/a	1
265.899	0.749988331	WINDFALL	lure	n/a	n/a	n/a	1
266.649	0.616659628	PICK	short	n/a	n/a	n/a	1
267.266	0.599989373	SLIPKNOT	lure	n/a	n/a	n/a	1
267.866	0.500052271	BREAKDOWN	lure	n/a	n/a	n/a	1
268.366	0.733265676	WIT	lure	n/a	n/a	n/a	1
269.099	0.516657865	UNICORN	lure	n/a	n/a	n/a	1
269.616	0.49999348	BRIDGEWORK	lure	n/a	n/a	n/a	1
270.116	0.349995721	MISCALL	lure	n/a	n/a	n/a	1
270.466	0.700048052	GRAVITY	lure	n/a	n/a	n/a	1
271.166	0.733332964	CREATIVITY	lure	n/a	n/a	n/a	1
271.899	0.566648601	FLUX	lure	n/a	n/a	n/a	1
272.466	0.566601373	GOTHICISM	lure	n/a	n/a	n/a	1
273.032	0.649990276	PERPLEXITY	lure	n/a	n/a	n/a	1
273.682	0.616716638	LAWYER	lure	n/a	n/a	n/a	1
274.299	0.349992511	BELT	lure	n/a	n/a	n/a	1
274.649	2.016584252	PAGE	long	n/a	n/a	n/a	1
276.666	0.683322689	ARMHOLE	lure	n/a	n/a	n/a	1
277.349	0.366661125	LIBERALITY	lure	n/a	n/a	n/a	1
277.716	0.74999109	COURTROOM	lure	n/a	n/a	n/a	1
278.466	0.616656884	SOUVENIR	lure	n/a	n/a	n/a	1
279.082	0.649992424	INSTANCE	lure	n/a	n/a	n/a	1
279.732	0.383324833	RADISH	lure	n/a	n/a	n/a	1
280.115	0.766657188	CALCULATOR	lure	n/a	n/a	n/a	1
280.882	0.416660224	BARBARITY	lure	n/a	n/a	n/a	1
281.299	0.649993406	LETTUCE	lure	n/a	n/a	n/a	1
281.949	0.716657029	LINT	lure	n/a	n/a	n/a	1
282.665	0.616656242	CONTRACT	short	n/a	n/a	n/a	1
283.282	0.633322977	LABYRINTH	lure	n/a	n/a	n/a	1
283.915	0.616656248	AVOIDANCE	lure	n/a	n/a	n/a	1
284.532	0.416663685	GASLIGHT	lure	n/a	n/a	n/a	1
284.949	0.716653881	BISTRO	lure	n/a	n/a	n/a	1
285.665	0.399997306	LOON	lure	n/a	n/a	n/a	1
286.065	0.416661953	CHECKLIST	lure	n/a	n/a	n/a	1
286.482	0.316665204	RUBBLE	lure	n/a	n/a	n/a	1
286.799	0.466657628	DOZEN	lure	n/a	n/a	n/a	1
287.265	0.566658769	SLAW	lure	n/a	n/a	n/a	1
287.832	0.36677704	DETENTION	lure	n/a	n/a	n/a	1
288.199	0.54987499	HUTCH	lure	n/a	n/a	n/a	1
288.749	0.483324415	FLAGSHIP	lure	n/a	n/a	n/a	1
289.232	0.583327628	BATTALION	lure	n/a	n/a	n/a	1
289.815	0.733373232	PRECURSOR	lure	n/a	n/a	n/a	1
290.549	0.516656337	CRUST	lure	n/a	n/a	n/a	1
291.065	2.049923312	RAIL	long	n/a	n/a	n/a	1
293.115	0.433385992	PETROLEUM	lure	n/a	n/a	n/a	1
293.549	0.583267631	MESSENGER	lure	n/a	n/a	n/a	1
294.132	0.683369544	BACKER	lure	n/a	n/a	n/a	1
294.815	0.749943862	BROTH	lure	n/a	n/a	n/a	1
295.565	0.716659032	RELEVANCE	lure	n/a	n/a	n/a	1
296.282	0.649988787	MOVEMENT	lure	n/a	n/a	n/a	1
296.932	0.583325233	WIDTH	lure	n/a	n/a	n/a	1
297.515	0.383322803	TIMIDITY	lure	n/a	n/a	n/a	1
297.899	0.366666686	POLYMER	lure	n/a	n/a	n/a	1
298.265	0.799988458	ENJOYMENT	lure	n/a	n/a	n/a	1
299.065	0.534723778	CONCEPTION	lure	n/a	n/a	n/a	1
299.6	0.61526093	PIN	short	n/a	n/a	n/a	1
300.215	0.433372215	HOOKY	lure	n/a	n/a	n/a	1
300.649	0.566613196	CHALLENGER	lure	n/a	n/a	n/a	1
301.215	0.61670791	ARMOR	lure	n/a	n/a	n/a	1
301.832	0.433277568	AUTOCRAT	lure	n/a	n/a	n/a	1
302.265	0.61679052	WINGER	lure	n/a	n/a	n/a	1
302.882	0.683192242	SACRAMENT	lure	n/a	n/a	n/a	1
303.565	0.433435692	EMIGRATION	lure	n/a	n/a	n/a	1
303.999	0.349886464	FLIGHT	lure	n/a	n/a	n/a	1
304.348	0.699990994	LIAISON	lure	n/a	n/a	n/a	1
305.048	0.699988505	WALLBOARD	lure	n/a	n/a	n/a	1
305.748	0.43332782	HARDSHIP	lure	n/a	n/a	n/a	1
306.182	0.666654125	LUCK	lure	n/a	n/a	n/a	1
306.848	0.61666224	BARRAGE	lure	n/a	n/a	n/a	1
307.465	0.36666158	RACEHORSE	lure	n/a	n/a	n/a	1
307.832	0.616658706	COLUMN	short	n/a	n/a	n/a	1
308.448	0.633322238	PARADIGM	lure	n/a	n/a	n/a	1
309.082	0.616656124	CRASHER	lure	n/a	n/a	n/a	1
309.698	0.416722334	WORKMAN	lure	n/a	n/a	n/a	1
310.115	0.766597943	SCUBA	lure	n/a	n/a	n/a	1
310.882	0.499994467	UNDERWORLD	lure	n/a	n/a	n/a	1
311.382	0.750044249	DUMPLING	lure	n/a	n/a	n/a	1
312.132	0.499938407	CLERIC	lure	n/a	n/a	n/a	1
312.632	0.667735885	CYCLONE	lure	n/a	n/a	n/a	1
313.299	0.400562981	THROWBACK	lure	n/a	n/a	n/a	1
313.7	0.36501358	INABILITY	lure	n/a	n/a	n/a	1
314.065	0.533324833	MADMAN	lure	n/a	n/a	n/a	1
314.598	0.483322072	POLE	lure	n/a	n/a	n/a	1
315.082	0.500054207	ELECTOR	lure	n/a	n/a	n/a	1
315.582	0.516658421	COFFEEPOT	lure	n/a	n/a	n/a	1
316.098	2.016585182	RATTLE	long	n/a	n/a	n/a	1
318.115	0.750047438	COACHMAN	lure	n/a	n/a	n/a	1
318.865	0.666597365	SECESSION	lure	n/a	n/a	n/a	1
319.532	0.433326449	CYCLIST	lure	n/a	n/a	n/a	1
319.965	0.699991849	NUTRIENT	lure	n/a	n/a	n/a	1
320.665	0.716659488	VIBRATION	lure	n/a	n/a	n/a	1
321.382	0.549989616	LEMONADE	lure	n/a	n/a	n/a	1
321.932	0.483324814	HAY	lure	89	2	n/a	0
322.415	0.466658719	HOLDOVER	lure	n/a	n/a	n/a	1
322.882	0.6833283	TANG	lure	n/a	n/a	n/a	1
323.565	0.766655878	TASKMASTER	lure	n/a	n/a	n/a	1
324.332	0.71665452	DISREPAIR	lure	n/a	n/a	n/a	1
325.048	0.616658662	ATLAS	short	n/a	n/a	n/a	1
325.665	0.333331056	KING	lure	n/a	n/a	n/a	1
325.998	0.533323362	BEACON	lure	n/a	n/a	n/a	1
326.532	0.416655582	SWINDLER	lure	n/a	n/a	n/a	1
326.948	0.516666205	PATRIARCHY	lure	n/a	n/a	n/a	1
327.465	0.599990498	ADMONITION	lure	n/a	n/a	n/a	1
328.065	0.499994655	VULGARITY	lure	n/a	n/a	n/a	1
328.565	0.683321356	DRUDGERY	lure	n/a	n/a	n/a	1
329.248	0.683327824	ALFREDO	lure	n/a	n/a	n/a	1
329.931	0.734810501	PHONECALL	lure	n/a	n/a	n/a	1
330.666	0.469564911	MONSTER	lure	n/a	n/a	n/a	1
331.136	0.378935028	APEX	lure	n/a	n/a	n/a	1
331.515	0.616654736	STAIRWELL	lure	n/a	n/a	n/a	1
332.131	0.33332817	VOODOO	lure	n/a	n/a	n/a	1
332.465	0.433330371	MINDER	lure	n/a	n/a	n/a	1
332.898	0.34999296	TOENAIL	lure	n/a	n/a	n/a	1
333.248	2.050029873	VAULT	long	n/a	n/a	n/a	1
335.298	0.569210182	FADEOUT	lure	n/a	n/a	n/a	1
335.867	0.499565605	GEOGRAPHER	lure	n/a	n/a	n/a	1
336.367	0.33114647	INCREASE	lure	n/a	n/a	n/a	1
336.698	0.58332414	PLAYWRIGHT	lure	n/a	n/a	n/a	1
337.281	0.66666123	HEXAGON	lure	n/a	n/a	n/a	1
337.948	0.666713672	CREEK	lure	n/a	n/a	n/a	1
338.615	0.366602583	HILARITY	lure	n/a	n/a	n/a	1
338.981	0.633324086	UNANIMITY	lure	n/a	n/a	n/a	1
339.615	0.583327165	REPORTER	lure	n/a	n/a	n/a	1
340.198	0.500052056	STOPOVER	lure	n/a	n/a	n/a	1
340.698	0.516661018	CENTERLINE	lure	n/a	n/a	n/a	1
341.215	0.649984798	EARRING	lure	n/a	n/a	n/a	1
341.865	2.016582469	PHOTO	long	n/a	n/a	n/a	1
343.881	0.583397743	TROOPSHIP	lure	n/a	n/a	n/a	1
344.465	0.416663995	PROSPERITY	lure	n/a	n/a	n/a	1
344.881	0.316635046	LIBERALISM	lure	n/a	n/a	n/a	1
345.198	0.716607329	SNOB	lure	n/a	n/a	n/a	1
345.915	0.749983967	CURVATURE	lure	n/a	n/a	n/a	1
346.665	0.350061868	HOMEGROWN	lure	n/a	n/a	n/a	1
347.015	0.516597199	CARICATURE	lure	n/a	n/a	n/a	1
347.531	0.666701273	SISTERHOOD	lure	n/a	n/a	n/a	1
348.198	0.566619694	CHAUVINIST	lure	n/a	n/a	n/a	1
348.765	0.350038904	GARMENT	lure	n/a	n/a	n/a	1
349.115	0.71661111	SURFER	lure	n/a	n/a	n/a	1
349.831	0.39999361	SWEEPSTAKE	lure	n/a	n/a	n/a	1
350.231	0.616658825	RACKET	short	n/a	n/a	n/a	1
350.848	0.700045839	WATERLINE	lure	n/a	n/a	n/a	1
351.548	0.716602054	FERRYBOAT	lure	n/a	n/a	n/a	1
352.264	0.649989316	STYLE	lure	n/a	n/a	n/a	1
352.914	0.766717226	SILO	lure	n/a	n/a	n/a	1
353.681	0.366599217	AUTO	lure	n/a	n/a	n/a	1
354.048	0.716658147	PITCHFORK	lure	n/a	n/a	n/a	1
354.764	0.583325305	BOOKSTALL	lure	n/a	n/a	n/a	1
355.348	0.716712573	BROILER	lure	n/a	n/a	n/a	1
356.064	0.683795753	STATISTIC	lure	n/a	n/a	n/a	1
356.748	0.582795959	BOOSTER	lure	n/a	n/a	n/a	1
357.331	0.69998988	ADVENT	lure	n/a	n/a	n/a	1
358.031	0.566715325	DEFAMATION	lure	n/a	n/a	n/a	1
358.598	1.017836148	KIWI	fruit	551	2	2	1
359.616	0.532086557	REGENT	lure	n/a	n/a	n/a	1
360.148	0.500054951	MIDST	lure	n/a	n/a	n/a	1
360.648	0.666597403	TENSION	lure	n/a	n/a	n/a	1
361.314	0.33338092	INSOMNIA	lure	n/a	n/a	n/a	1
361.648	0.683329706	PLANKTON	lure	n/a	n/a	n/a	1
362.331	0.71659434	SCHEMA	lure	n/a	n/a	n/a	1
363.048	0.400002219	ALGEBRA	lure	n/a	n/a	n/a	1
363.448	0.549981777	WAFER	lure	n/a	n/a	n/a	1
363.998	0.683328844	BACKBOARD	lure	n/a	n/a	n/a	1
364.681	0.56665795	HOGWASH	lure	n/a	n/a	n/a	1
365.248	0.53332891	FACULTY	lure	n/a	n/a	n/a	1
365.781	0.699989145	HYDRANT	lure	n/a	n/a	n/a	1
366.481	0.416715216	OSTEOPATHY	lure	n/a	n/a	n/a	1
366.898	0.6166034	HOOD	short	n/a	n/a	n/a	1
367.514	0.433383684	GOATSKIN	lure	n/a	n/a	n/a	1
367.948	0.566602514	MILDEW	lure	n/a	n/a	n/a	1
368.514	0.483325199	DRAWBACK	lure	n/a	n/a	n/a	1
368.998	0.483327979	SHRUB	lure	n/a	n/a	n/a	1
369.481	0.366661633	INTENT	lure	n/a	n/a	n/a	1
369.848	0.649991665	DROPLET	lure	n/a	n/a	n/a	1
370.498	0.566715245	SPEEDUP	lure	n/a	n/a	n/a	1
371.064	0.566599723	JELLO	lure	n/a	n/a	n/a	1
371.631	0.483330158	GIRLFRIEND	lure	n/a	n/a	n/a	1
372.114	0.54999194	PERIMETER	lure	n/a	n/a	n/a	1
372.664	0.53332467	UNIT	lure	n/a	n/a	n/a	1
373.198	0.316659456	ALTITUDE	lure	n/a	n/a	n/a	1
373.514	0.616717701	NITROGEN	lure	n/a	n/a	n/a	1
374.131	0.533270314	TRAVELER	lure	n/a	n/a	n/a	1
374.664	0.466657438	MATRIX	lure	n/a	n/a	n/a	1
375.131	2.016642089	PENDULUM	long	n/a	n/a	n/a	1
377.147	0.616712771	PROCESSION	lure	n/a	n/a	n/a	1
377.764	0.633267241	JACKPOT	lure	n/a	n/a	n/a	1
378.397	0.749991557	DRAUGHT	lure	n/a	n/a	n/a	1
379.147	0.716655099	HEARER	lure	n/a	n/a	n/a	1
379.864	0.716713894	DEED	lure	n/a	n/a	n/a	1
380.581	0.649933434	JAVELIN	lure	n/a	n/a	n/a	1
381.231	0.71671368	BABYHOOD	lure	n/a	n/a	n/a	1
381.947	0.699946152	CATTLEMEN	lure	n/a	n/a	n/a	1
382.647	0.433313534	LINEMAN	lure	n/a	n/a	n/a	1
383.081	0.483327844	SHELLFISH	lure	n/a	n/a	n/a	1
383.564	2.050028896	GOLF	long	n/a	n/a	n/a	1
385.614	0.316604914	ILLUSION	lure	n/a	n/a	n/a	1
385.931	0.569683939	BIRDSEED	lure	n/a	n/a	n/a	1
386.5	0.763626393	WINDOWPANE	lure	n/a	n/a	n/a	1
387.264	0.700057117	MARKUP	lure	n/a	n/a	n/a	1
387.964	0.59998338	TECHNICIAN	lure	n/a	n/a	n/a	1
388.564	0.749928803	COLESLAW	lure	n/a	n/a	n/a	1
389.314	0.550053233	MILITIA	lure	n/a	n/a	n/a	1
389.864	0.466605004	RECLUSE	lure	n/a	n/a	n/a	1
390.331	0.749988261	WRINGER	lure	n/a	n/a	n/a	1
391.081	0.350043905	MERCER	lure	n/a	n/a	n/a	1
391.431	2.016592929	DRUM	long	n/a	n/a	n/a	1
393.447	0.533324727	TOWNSHIP	lure	n/a	n/a	n/a	1
393.981	0.599988329	ONYX	lure	n/a	n/a	n/a	1
394.581	0.499992491	DETECTION	lure	n/a	n/a	n/a	1
395.081	0.566661897	POSER	lure	n/a	n/a	n/a	1
395.647	0.533402885	EXPEDITION	lure	n/a	n/a	n/a	1
396.181	0.683246431	TYPEWRITER	lure	n/a	n/a	n/a	1
396.864	0.716717192	EMERGENCY	lure	n/a	n/a	n/a	1
397.581	0.349992142	NONSTARTER	lure	n/a	n/a	n/a	1
397.931	0.51665146	CARD	lure	n/a	n/a	n/a	1
398.447	0.566610726	DOORFRAME	lure	n/a	n/a	n/a	1
399.014	0.516712996	POLLUTION	lure	n/a	n/a	n/a	1
399.531	0.317747458	QUICKSAND	lure	n/a	n/a	n/a	1
399.848	2.015495327	GIFT	long	n/a	n/a	n/a	1
401.864	0.633326206	WAISTCOAT	lure	n/a	n/a	n/a	1
402.497	0.649993937	ESTIMATE	lure	n/a	n/a	n/a	1
403.147	0.433382434	EXPIRATION	lure	n/a	n/a	n/a	1
403.58	0.466603097	AIRFORCE	lure	n/a	n/a	n/a	1
404.047	0.333330944	CHURCH	lure	n/a	n/a	n/a	1
404.38	0.637662093	JUROR	lure	n/a	n/a	n/a	1
405.018	0.445655022	SUGARCANE	lure	n/a	n/a	n/a	1
405.464	0.466660601	VANITY	lure	n/a	n/a	n/a	1
405.93	0.316719767	GYMNAST	lure	n/a	n/a	n/a	1
406.247	0.633261273	GRAIL	lure	n/a	n/a	n/a	1
406.88	0.683331176	FIANCE	lure	n/a	n/a	n/a	1
407.564	0.633324667	HEARTBREAK	lure	n/a	n/a	n/a	1
408.197	1.01664915	ORANGE	fruit	760	2	2	1
409.214	0.399991564	DILL	lure	n/a	n/a	n/a	1
409.614	0.749992891	LIVERWURST	lure	n/a	n/a	n/a	1
410.364	0.366661734	TELEVISION	lure	n/a	n/a	n/a	1
410.73	0.483328087	LEDGE	lure	n/a	n/a	n/a	1
411.214	0.333329263	PARKWAY	lure	n/a	n/a	n/a	1
411.547	0.416702379	DETECTIVE	lure	n/a	n/a	n/a	1
411.964	0.633279783	HEATWAVE	lure	n/a	n/a	n/a	1
412.597	0.349998528	HEROISM	lure	n/a	n/a	n/a	1
412.947	0.54999096	GOSPEL	lure	n/a	n/a	n/a	1
413.497	0.433326268	LANE	lure	n/a	n/a	n/a	1
413.93	0.633324302	RETHINK	lure	n/a	n/a	n/a	1
414.564	0.466659561	WINDMILL	lure	n/a	n/a	n/a	1
415.03	0.399990547	FISHERY	lure	n/a	n/a	n/a	1
415.43	0.433332873	LITERATURE	lure	n/a	n/a	n/a	1
415.864	0.749988115	PINUP	lure	n/a	n/a	n/a	1
416.614	0.616660671	SAWDUST	short	n/a	n/a	n/a	1
417.23	0.449992616	MACKEREL	lure	n/a	n/a	n/a	1
417.68	0.317912616	CARPENTER	lure	n/a	n/a	n/a	1
417.998	0.648742232	ADMIRER	lure	n/a	n/a	n/a	1
418.647	0.533323035	ANYONE	lure	n/a	n/a	n/a	1
419.18	0.349995145	DIALECT	lure	n/a	n/a	n/a	1
419.53	0.499993688	GRAD	lure	n/a	n/a	n/a	1
420.03	0.749987848	GOVERNOR	lure	n/a	n/a	n/a	1
420.78	0.549995895	CONFESSION	lure	n/a	n/a	n/a	1
421.33	0.716715904	FINALIST	lure	n/a	n/a	n/a	1
422.047	0.699928743	RAINFALL	lure	n/a	n/a	n/a	1
422.747	0.500052182	RASCAL	lure	n/a	n/a	n/a	1
423.247	0.633264094	COLORATION	lure	n/a	n/a	n/a	1
423.88	0.333331292	MISHAP	lure	n/a	n/a	n/a	1
424.213	0.73337733	READERSHIP	lure	n/a	n/a	n/a	1
424.947	0.616603021	SAND	short	n/a	n/a	n/a	1
425.563	0.46672011	HANDYMAN	lure	n/a	n/a	n/a	1
426.03	0.799928538	SLANDERER	lure	n/a	n/a	n/a	1
426.83	0.466720162	KILT	lure	n/a	n/a	n/a	1
427.297	0.585903278	DOER	lure	n/a	n/a	n/a	1
427.883	0.581565487	AUTOMOBILE	lure	n/a	n/a	n/a	1
428.464	0.667568906	CONTOUR	lure	n/a	n/a	n/a	1
429.132	0.56756598	FASTENER	lure	n/a	n/a	n/a	1
429.699	0.580626269	GROCERY	lure	n/a	n/a	n/a	1
430.28	0.383331155	FATALISM	lure	n/a	n/a	n/a	1
430.663	0.59999065	WILDFIRE	lure	n/a	n/a	n/a	1
431.263	0.549988314	FANATICISM	lure	n/a	n/a	n/a	1
431.813	0.399996762	INFANTRY	lure	n/a	n/a	n/a	1
432.213	0.316717542	BOOKCLUB	lure	n/a	n/a	n/a	1
432.53	0.499939741	INACTION	lure	n/a	n/a	n/a	1
433.03	1.021326989	APPLE	fruit	679	2	2	1
434.051	0.511984918	MEDALLIST	lure	n/a	n/a	n/a	1
434.563	0.483326157	LETTER	lure	n/a	n/a	n/a	1
435.047	0.483325982	CRATE	lure	n/a	n/a	n/a	1
435.53	0.43338287	IGLOO	lure	n/a	n/a	n/a	1
435.963	0.666662489	UTOPIA	lure	n/a	n/a	n/a	1
436.63	0.666592318	DALE	lure	n/a	n/a	n/a	1
437.297	0.350055982	SUNSET	lure	n/a	n/a	n/a	1
437.647	0.449936904	SELF	lure	n/a	n/a	n/a	1
438.097	0.516716645	STAPLER	lure	n/a	n/a	n/a	1
438.613	0.399938092	BREADBOARD	lure	n/a	n/a	n/a	1
439.013	0.349996999	AFTERCARE	lure	n/a	n/a	n/a	1
439.363	0.316660204	REGULATION	lure	n/a	n/a	n/a	1
439.68	0.533383013	SNATCHER	lure	n/a	n/a	n/a	1
440.213	0.616601061	RUBBER	lure	n/a	n/a	n/a	1
440.83	0.383328292	VERACITY	lure	n/a	n/a	n/a	1
441.213	0.616659041	SWORD	short	n/a	n/a	n/a	1
441.83	0.650045878	OUTGROWTH	lure	n/a	n/a	n/a	1
442.48	0.449938619	ANKLET	lure	n/a	n/a	n/a	1
442.93	0.516659647	REMOVER	lure	n/a	n/a	n/a	1
443.447	0.716655315	BRAINWAVE	lure	n/a	n/a	n/a	1
444.163	0.699988212	GIN	lure	n/a	n/a	n/a	1
444.863	0.316710111	DOLLHOUSE	lure	n/a	n/a	n/a	1
445.18	0.649945544	SCREE	lure	n/a	n/a	n/a	1
445.83	0.616658324	EXHAUSTION	lure	n/a	n/a	n/a	1
446.447	0.766656306	OUTLET	lure	n/a	n/a	n/a	1
447.213	0.349994361	GROWER	lure	n/a	n/a	n/a	1
447.563	0.383386179	REALIST	lure	n/a	n/a	n/a	1
447.947	0.38326789	COLLIE	lure	n/a	n/a	n/a	1
448.33	0.533327641	ADMISSION	lure	n/a	n/a	n/a	1
448.863	0.583323889	MORNING	lure	n/a	n/a	n/a	1
449.446	2.016641874	CORD	long	n/a	n/a	n/a	1
451.463	0.683411092	SAMBA	lure	n/a	n/a	n/a	1
452.147	0.649900858	HORSESHOE	lure	n/a	n/a	n/a	1
452.796	0.449993283	MARKER	lure	n/a	n/a	n/a	1
453.246	0.466659952	CHEMISE	lure	n/a	n/a	n/a	1
453.713	0.366661911	FISHBONE	lure	n/a	n/a	n/a	1
454.08	0.601805335	PERSONA	lure	n/a	n/a	n/a	1
454.682	0.382786077	GIBBERISH	lure	n/a	n/a	n/a	1
455.064	0.565386445	VIGILANTE	lure	n/a	n/a	n/a	1
455.63	0.63338076	MELODRAMA	lure	n/a	n/a	n/a	1
456.263	0.316666765	CHEETAH	lure	n/a	n/a	n/a	1
456.58	0.416657354	ETHANOL	lure	n/a	n/a	n/a	1
456.996	0.349938213	JEWELER	lure	n/a	n/a	n/a	1
457.346	0.483385109	ANCESTRY	lure	n/a	n/a	n/a	1
457.83	0.619735438	LARCENY	lure	n/a	n/a	n/a	1
458.449	0.64691626	OVERTONE	lure	n/a	n/a	n/a	1
459.096	0.683262855	ABSOLUTION	lure	n/a	n/a	n/a	1
459.78	0.750048559	LANDMARK	lure	n/a	n/a	n/a	1
460.53	0.399994532	SEAPORT	lure	n/a	n/a	n/a	1
460.93	0.666656404	DIVERSITY	lure	n/a	n/a	n/a	1
461.596	0.316666607	RIGGER	lure	n/a	n/a	n/a	1
461.913	0.318334529	SURCHARGE	lure	n/a	n/a	n/a	1
462.231	0.702568985	DISSENT	lure	n/a	n/a	n/a	1
462.934	0.662404084	APPLICATOR	lure	n/a	n/a	n/a	1
463.596	0.51667159	HAVOC	lure	n/a	n/a	n/a	1
464.113	0.549920263	CARROT	lure	n/a	n/a	n/a	1
464.663	n/a	INVALID	lure	n/a	n/a	n/a	1