onset	duration	stim	cond	RT	resp	cresp	acc
4.042	0.700034259	WINGSPAN	lure	n/a	n/a	n/a	1
4.742	0.699947902	PROMENADE	lure	n/a	n/a	n/a	1
5.442	0.516703267	ROOF	lure	n/a	n/a	n/a	1
5.958	0.566612235	DOVE	lure	n/a	n/a	n/a	1
6.525	0.370373273	TOXIN	lure	n/a	n/a	n/a	1
6.895	0.579616195	CEREAL	lure	n/a	n/a	n/a	1
7.475	0.650038331	MOTHERLAND	lure	n/a	n/a	n/a	1
8.125	0.61660948	BRASS	short	n/a	n/a	n/a	1
8.741	0.566716914	TEABAG	lure	n/a	n/a	n/a	1
9.308	0.349936285	SERUM	lure	n/a	n/a	n/a	1
9.658	0.399992773	SHEEPSKIN	lure	n/a	n/a	n/a	1
10.058	0.583327168	SESAME	lure	n/a	n/a	n/a	1
10.641	0.716655249	FORUM	lure	n/a	n/a	n/a	1
11.358	0.32058351	SONGBOOK	lure	n/a	n/a	n/a	1
11.679	0.566572608	UTOPIA	lure	n/a	n/a	n/a	1
12.245	0.749570309	JUSTICE	lure	n/a	n/a	n/a	1
12.995	0.383561738	WALNUT	lure	n/a	n/a	n/a	1
13.378	0.563009696	FISSION	lure	n/a	n/a	n/a	1
13.941	0.316662472	NOBILITY	lure	n/a	n/a	n/a	1
14.258	0.400058893	CHICK	lure	n/a	n/a	n/a	1
14.658	0.333259891	DISBELIEF	lure	n/a	n/a	n/a	1
14.991	0.483333294	VERDICT	lure	n/a	n/a	n/a	1
15.475	0.333321758	MOTEL	lure	n/a	n/a	n/a	1
15.808	0.683387161	MANOR	lure	n/a	n/a	n/a	1
16.491	0.616599871	ASHES	short	n/a	n/a	n/a	1
17.108	0.566650629	CLERGY	lure	n/a	n/a	n/a	1
17.675	0.550047165	QUICKSAND	lure	n/a	n/a	n/a	1
18.225	0.383278212	FREEBIE	lure	n/a	n/a	n/a	1
18.608	0.483384806	RELICT	lure	n/a	n/a	n/a	1
19.091	0.633263828	FIn/aCIER	lure	n/a	n/a	n/a	1
19.725	0.4529766	COWBOY	lure	n/a	n/a	n/a	1
20.178	0.513678566	UNDERTONE	lure	n/a	n/a	n/a	1
20.691	0.633325695	OPENER	lure	n/a	n/a	n/a	1
21.325	0.483323666	CHALICE	lure	n/a	n/a	n/a	1
21.808	0.566706601	CALORIE	lure	n/a	n/a	n/a	1
22.375	0.699942849	PLATEFUL	lure	n/a	n/a	n/a	1
23.075	0.483326518	SIMULATOR	lure	n/a	n/a	n/a	1
23.558	0.466717593	DICTIONARY	lure	n/a	n/a	n/a	1
24.025	0.333268327	FOREBEAR	lure	n/a	n/a	n/a	1
24.358	2.04997275	COLUMN	long	n/a	n/a	n/a	1
26.408	0.33574961	RETRIAL	lure	n/a	n/a	n/a	1
26.744	0.414242097	AUTONOMY	lure	n/a	n/a	n/a	1
27.158	0.600033974	RESIDENT	lure	n/a	n/a	n/a	1
27.758	0.583339563	HAIRSTYLE	lure	n/a	n/a	n/a	1
28.341	0.749990111	JITTERBUG	lure	n/a	n/a	n/a	1
29.091	0.599932312	DRAY	lure	n/a	n/a	n/a	1
29.691	0.650047986	BRIDGEHEAD	lure	n/a	n/a	n/a	1
30.341	0.699931743	WORKDAY	lure	n/a	n/a	n/a	1
31.041	0.599991871	JACKRABBIT	lure	n/a	n/a	n/a	1
31.641	0.633323332	NEWT	lure	n/a	n/a	n/a	1
32.274	0.46666048	SAWHORSE	lure	n/a	n/a	n/a	1
32.741	2.016639797	COUNCIL	long	n/a	n/a	n/a	1
34.758	0.416658351	TONGUE	lure	n/a	n/a	n/a	1
35.174	0.633325568	SAPPHIRE	lure	n/a	n/a	n/a	1
35.808	0.316660732	VAPOR	lure	n/a	n/a	n/a	1
36.124	0.583324997	INTENTION	lure	n/a	n/a	n/a	1
36.708	0.633319618	ICEBREAKER	lure	n/a	n/a	n/a	1
37.341	0.699995076	DEPICTION	lure	n/a	n/a	n/a	1
38.041	0.566659233	SKY	lure	n/a	n/a	n/a	1
38.608	0.733321176	TOWNSMEN	lure	n/a	n/a	n/a	1
39.341	0.483325181	PAUPER	lure	n/a	n/a	n/a	1
39.824	0.633323145	ELEVATOR	lure	n/a	n/a	n/a	1
40.458	0.685898082	MAJORITY	lure	n/a	n/a	n/a	1
41.144	0.614567194	CITY	short	n/a	n/a	n/a	1
41.758	0.38556492	RUNOFF	lure	n/a	n/a	n/a	1
42.144	0.613939639	MUFFLER	lure	n/a	n/a	n/a	1
42.758	0.351185239	CRIER	lure	n/a	n/a	n/a	1
43.109	0.417562801	SEQUOIA	lure	n/a	n/a	n/a	1
43.526	0.447955654	FROSTBITE	lure	n/a	n/a	n/a	1
43.974	0.470025732	CARTILAGE	lure	n/a	n/a	n/a	1
44.444	0.446675593	MINDER	lure	n/a	n/a	n/a	1
44.891	0.449891276	DAYBREAK	lure	n/a	n/a	n/a	1
45.341	0.449990973	NOTION	lure	n/a	n/a	n/a	1
45.791	0.700053021	WASHCLOTH	lure	n/a	n/a	n/a	1
46.491	0.533266421	PARKA	lure	n/a	n/a	n/a	1
47.024	0.699990807	FATHERHOOD	lure	n/a	n/a	n/a	1
47.724	0.549988795	OBSTACLE	lure	n/a	n/a	n/a	1
48.274	0.666658738	ESCALATION	lure	n/a	n/a	n/a	1
48.941	0.616715034	BISON	lure	n/a	n/a	n/a	1
49.558	0.64997998	BELT	short	n/a	n/a	n/a	1
50.208	0.716698871	CASTOR	lure	n/a	n/a	n/a	1
50.924	0.716614496	STADIUM	lure	n/a	n/a	n/a	1
51.641	0.716609765	ENCLAVE	lure	n/a	n/a	n/a	1
52.357	0.633358973	PECAN	lure	n/a	n/a	n/a	1
52.991	0.533290973	ANALYST	lure	n/a	n/a	n/a	1
53.524	0.650049384	RANCH	lure	n/a	n/a	n/a	1
54.174	0.616902243	WAVELENGTH	lure	n/a	n/a	n/a	1
54.791	0.416420426	CARGO	lure	n/a	n/a	n/a	1
55.208	0.566650714	MANHOLE	lure	n/a	n/a	n/a	1
55.774	0.349935954	WAXWORK	lure	n/a	n/a	n/a	1
56.124	0.500056114	LAKE	lure	n/a	n/a	n/a	1
56.624	0.749925473	DEWDROP	lure	n/a	n/a	n/a	1
57.374	0.366739943	ABBEY	lure	n/a	n/a	n/a	1
57.741	2.01656608	RIDGE	long	n/a	n/a	n/a	1
59.757	0.599985643	EXPANSE	lure	n/a	n/a	n/a	1
60.357	0.499992181	LATTICE	lure	n/a	n/a	n/a	1
60.857	0.700109964	ALIENATION	lure	n/a	n/a	n/a	1
61.557	0.583208474	SANDSTONE	lure	n/a	n/a	n/a	1
62.141	0.366660996	MATRIARCH	lure	n/a	n/a	n/a	1
62.507	0.783321273	FOREFINGER	lure	n/a	n/a	n/a	1
63.291	0.316660142	COOKOUT	lure	n/a	n/a	n/a	1
63.607	0.366661458	CLERIC	lure	n/a	n/a	n/a	1
63.974	0.666658143	RADAR	lure	n/a	n/a	n/a	1
64.641	0.63332438	CONVEYANCE	lure	n/a	n/a	n/a	1
65.274	0.466658571	CODFISH	lure	n/a	n/a	n/a	1
65.741	0.733636956	HUNK	lure	n/a	n/a	n/a	1
66.474	0.616345387	SPARK	short	n/a	n/a	n/a	1
67.091	0.466662398	ACCORDANCE	lure	n/a	n/a	n/a	1
67.557	0.449988885	VELVET	lure	n/a	n/a	n/a	1
68.007	0.43333319	FIANCEE	lure	n/a	n/a	n/a	1
68.441	0.716656047	HANDMAID	lure	n/a	n/a	n/a	1
69.157	0.466661809	DIVA	lure	n/a	n/a	n/a	1
69.624	0.449991203	ONLOOKER	lure	n/a	n/a	n/a	1
70.074	0.516657928	MARQUEE	lure	n/a	n/a	n/a	1
70.591	0.599991149	CITATION	lure	n/a	n/a	n/a	1
71.191	0.333331943	CAFFEINE	lure	n/a	n/a	n/a	1
71.524	0.716651475	SCULLERY	lure	n/a	n/a	n/a	1
72.241	0.701403664	PASTRY	lure	n/a	n/a	n/a	1
72.942	0.69858061	EXPEDIENCE	lure	n/a	n/a	n/a	1
73.641	0.633324103	UBIQUITY	lure	n/a	n/a	n/a	1
74.274	0.683324519	JAILER	lure	n/a	n/a	n/a	1
74.957	1.016652059	ORANGE	fruit	n/a	n/a	2	0
75.974	0.733321239	GRANNY	lure	113	2	n/a	0
76.707	0.599986858	COMRADE	lure	n/a	n/a	n/a	1
77.307	0.649995498	RHAPSODY	lure	n/a	n/a	n/a	1
77.957	0.449987857	SIRLOIN	lure	n/a	n/a	n/a	1
78.407	0.466665886	TABLEWARE	lure	n/a	n/a	n/a	1
78.874	0.736400801	BRICKYARD	lure	n/a	n/a	n/a	1
79.61	0.380250883	SACCHARIN	lure	n/a	n/a	n/a	1
79.99	0.733317781	TREATY	lure	n/a	n/a	n/a	1
80.724	0.666653917	AUTOCRAT	lure	n/a	n/a	n/a	1
81.39	0.549998103	SUNDAE	lure	n/a	n/a	n/a	1
81.94	0.683323841	THRUSTER	lure	n/a	n/a	n/a	1
82.624	0.587357022	SCAFFOLD	lure	n/a	n/a	n/a	1
83.211	1.014572854	CANTELOUPE	fruit	n/a	n/a	2	0
84.226	0.466565469	INFANCY	lure	n/a	n/a	n/a	1
84.692	0.668566035	PARCHMENT	lure	n/a	n/a	n/a	1
85.361	0.529557489	FORESTER	lure	n/a	n/a	n/a	1
85.89	0.699990936	LIBERATION	lure	n/a	n/a	n/a	1
86.59	0.516660608	FOOLERY	lure	n/a	n/a	n/a	1
87.107	0.499990537	HEN	lure	n/a	n/a	n/a	1
87.607	0.516658728	WIDOWER	lure	n/a	n/a	n/a	1
88.124	0.699995052	STABILITY	lure	n/a	n/a	n/a	1
88.824	0.466691646	PRIORITY	lure	n/a	n/a	n/a	1
89.29	0.43329003	PERFORMER	lure	n/a	n/a	n/a	1
89.724	0.583321502	ANNEX	lure	n/a	n/a	n/a	1
90.307	0.516664832	PROJECT	lure	n/a	n/a	n/a	1
90.824	0.633324517	FORKLIFT	lure	n/a	n/a	n/a	1
91.457	2.016640872	PYRAMID	long	n/a	n/a	n/a	1
93.474	0.383322522	READERSHIP	lure	n/a	n/a	n/a	1
93.857	0.549994416	ARCADE	lure	n/a	n/a	n/a	1
94.407	0.349992872	INSPECTOR	lure	n/a	n/a	n/a	1
94.757	0.666660098	WARLORD	lure	n/a	n/a	n/a	1
95.424	0.433380754	APPLICANT	lure	n/a	n/a	n/a	1
95.857	0.333273081	CONTENDER	lure	n/a	n/a	n/a	1
96.19	0.533325617	FOOTHOLD	lure	n/a	n/a	n/a	1
96.724	0.383327818	ERASURE	lure	n/a	n/a	n/a	1
97.107	0.499991743	METALWORK	lure	n/a	n/a	n/a	1
97.607	0.733382455	BOOKKEEPER	lure	n/a	n/a	n/a	1
98.34	0.433267454	CONCORD	lure	n/a	n/a	n/a	1
98.773	0.433329541	HEYDAY	lure	n/a	n/a	n/a	1
99.207	0.719917623	PROSE	lure	n/a	n/a	n/a	1
99.927	0.614563607	MATTER	short	n/a	n/a	n/a	1
100.541	0.384562589	LUGGAGE	lure	n/a	n/a	n/a	1
100.926	0.630922925	FLIER	lure	n/a	n/a	n/a	1
101.557	0.716728437	WHEELBASE	lure	n/a	n/a	n/a	1
102.274	0.349968391	WAY	lure	n/a	n/a	n/a	1
102.623	0.583281691	INDUCEMENT	lure	n/a	n/a	n/a	1
103.207	0.749986504	PAYCHECK	lure	n/a	n/a	n/a	1
103.957	0.46665797	RECOVERY	lure	n/a	n/a	n/a	1
104.423	0.599994736	ARCHANGEL	lure	n/a	n/a	n/a	1
105.023	0.316734318	LANTERN	lure	n/a	n/a	n/a	1
105.34	0.733244604	TROOPSHIP	lure	n/a	n/a	n/a	1
106.073	0.466729843	PHOTOFLASH	lure	n/a	n/a	n/a	1
106.54	0.349931604	DUMPLING	lure	n/a	n/a	n/a	1
106.89	0.416659519	GOBLET	lure	n/a	n/a	n/a	1
107.307	0.499990663	STOPPAGE	lure	n/a	n/a	n/a	1
107.807	0.366660653	BLENDER	lure	n/a	n/a	n/a	1
108.173	2.016641354	TART	long	n/a	n/a	n/a	1
110.19	0.666654212	INGENUITY	lure	n/a	n/a	n/a	1
110.857	0.699994165	ROADSIDE	lure	n/a	n/a	n/a	1
111.557	0.749984617	DISC	lure	n/a	n/a	n/a	1
112.307	0.750193609	RETHINK	lure	n/a	n/a	n/a	1
113.057	0.633122249	HEADPIECE	lure	n/a	n/a	n/a	1
113.69	0.583324065	TIPOFF	lure	n/a	n/a	n/a	1
114.273	0.316664742	ALLERGY	lure	n/a	n/a	n/a	1
114.59	0.516657139	BOMBSHELL	lure	n/a	n/a	n/a	1
115.107	0.449995887	UPRISING	lure	n/a	n/a	n/a	1
115.557	0.716655344	UNDERSHIRT	lure	n/a	n/a	n/a	1
116.273	0.666653657	NOVEL	short	n/a	n/a	n/a	1
116.94	0.749991903	COMPRESSOR	lure	n/a	n/a	n/a	1
117.69	0.533361311	PITFALL	lure	n/a	n/a	n/a	1
118.223	0.599957984	MONSTER	lure	n/a	n/a	n/a	1
118.823	0.700037761	HALL	lure	n/a	n/a	n/a	1
119.523	0.533353131	CELIBACY	lure	n/a	n/a	n/a	1
120.057	0.533248767	SILVERWARE	lure	n/a	n/a	n/a	1
120.59	0.433327462	AIRMEN	lure	n/a	n/a	n/a	1
121.023	0.716701808	PHILOSOPHY	lure	n/a	n/a	n/a	1
121.74	0.516722841	WAREHOUSE	lure	n/a	n/a	n/a	1
122.257	0.799874425	POSTMEN	lure	n/a	n/a	n/a	1
123.056	0.533366478	VIGIL	lure	n/a	n/a	n/a	1
123.59	0.683693403	MAGNOLIA	lure	n/a	n/a	n/a	1
124.274	2.016232279	CLUB	long	n/a	n/a	n/a	1
126.29	0.733368853	HONEYDEW	lure	n/a	n/a	n/a	1
127.023	0.683275651	GUn/aOOM	lure	503	2	n/a	0
127.706	0.399994549	STINT	lure	n/a	n/a	n/a	1
128.106	0.566660986	SALOON	lure	n/a	n/a	n/a	1
128.673	0.499991893	STRONGHOLD	lure	n/a	n/a	n/a	1
129.173	0.366663403	ALLOTMENT	lure	n/a	n/a	n/a	1
129.54	0.366656776	FRICTION	lure	n/a	n/a	n/a	1
129.906	0.383327651	FREEDMEN	lure	n/a	n/a	n/a	1
130.29	0.366663458	FREEDOM	lure	n/a	n/a	n/a	1
130.656	0.449990002	DEPENDENCY	lure	n/a	n/a	n/a	1
131.106	0.566660963	WASHBOARD	lure	n/a	n/a	n/a	1
131.673	0.602781516	CHIMPANZEE	lure	n/a	n/a	n/a	1
132.276	1.015577399	BAn/aA	fruit	n/a	n/a	2	0
133.291	0.364950024	NITROGEN	lure	139	2	n/a	0
133.656	0.583322145	WHOOPING	lure	n/a	n/a	n/a	1
134.24	0.450052037	MEALTIME	lure	n/a	n/a	n/a	1
134.69	0.79992801	GAVEL	lure	n/a	n/a	n/a	1
135.49	0.466663781	SYNONYM	lure	n/a	n/a	n/a	1
135.956	0.449990973	STAIRCASE	lure	n/a	n/a	n/a	1
136.406	0.437994721	PREHISTORY	lure	n/a	n/a	n/a	1
136.844	0.432563226	COMEDIAN	lure	n/a	n/a	n/a	1
137.277	0.579423148	GLYCERINE	lure	n/a	n/a	n/a	1
137.856	0.570706011	NOOK	lure	n/a	n/a	n/a	1
138.427	0.345947155	BALE	lure	n/a	n/a	n/a	1
138.773	0.716654972	BEGINNER	lure	n/a	n/a	n/a	1
139.49	0.63332478	WATERMARK	lure	n/a	n/a	n/a	1
140.123	0.699989365	DEADWOOD	lure	n/a	n/a	n/a	1
140.823	0.616661528	BUCKET	short	n/a	n/a	n/a	1
141.44	0.716652618	AFFIX	lure	n/a	n/a	n/a	1
142.156	0.383328665	PATROLMAN	lure	n/a	n/a	n/a	1
142.54	0.349996027	JOURNALIST	lure	n/a	n/a	n/a	1
142.89	0.633323788	NITRATE	lure	n/a	n/a	n/a	1
143.523	0.316661973	INTRO	lure	n/a	n/a	n/a	1
143.84	0.650040918	SLEEVE	lure	n/a	n/a	n/a	1
144.49	0.749938617	HANDYMAN	lure	n/a	n/a	n/a	1
145.24	0.38338764	CUB	lure	n/a	n/a	n/a	1
145.623	0.549931331	WIFE	lure	n/a	n/a	n/a	1
146.173	0.583392734	INTERCOM	lure	n/a	n/a	n/a	1
146.756	0.399933334	BANISHMENT	lure	n/a	n/a	n/a	1
147.156	0.333385033	SEAMANSHIP	lure	n/a	n/a	n/a	1
147.49	0.649929872	BUNNY	lure	n/a	n/a	n/a	1
148.139	0.516658003	EXHALATION	lure	n/a	n/a	n/a	1
148.656	0.399994483	DAIQUIRI	lure	n/a	n/a	n/a	1
149.056	2.016637909	SAIL	long	n/a	n/a	n/a	1
151.073	0.516659379	DIARY	lure	n/a	n/a	n/a	1
151.589	0.449993143	INSIGHT	lure	n/a	n/a	n/a	1
152.039	0.516657958	PETUNIA	lure	n/a	n/a	n/a	1
152.556	0.466709124	SPANGLE	lure	n/a	n/a	n/a	1
153.023	0.516612262	FIREDOG	lure	n/a	n/a	n/a	1
153.539	0.649992121	DEPARTMENT	lure	n/a	n/a	n/a	1
154.189	0.333325332	MAYPOLE	lure	n/a	n/a	n/a	1
154.523	0.516658234	AHOY	lure	n/a	n/a	n/a	1
155.039	0.366665364	SUBSYSTEM	lure	n/a	n/a	n/a	1
155.406	0.533322497	GRADUATION	lure	n/a	n/a	n/a	1
155.939	0.483328796	GASOLINE	lure	n/a	n/a	n/a	1
156.423	0.383325836	OCTAGON	lure	n/a	n/a	n/a	1
156.806	0.716657129	SUITCASE	lure	n/a	n/a	n/a	1
157.523	2.016637576	RACKET	long	n/a	n/a	n/a	1
159.539	0.633324607	LIMITATION	lure	n/a	n/a	n/a	1
160.173	0.416664652	HUSBANDRY	lure	n/a	n/a	n/a	1
160.589	0.499989628	CALIPER	lure	n/a	n/a	n/a	1
161.089	0.366724293	ANTIDOTE	lure	n/a	n/a	n/a	1
161.456	0.63326092	WOODYARD	lure	n/a	n/a	n/a	1
162.089	0.433328151	PROVIDENCE	lure	n/a	n/a	n/a	1
162.523	0.63332263	ALBUM	lure	n/a	n/a	n/a	1
163.156	0.399990505	BROWNIE	lure	n/a	n/a	n/a	1
163.556	0.385675858	OUTSIDER	lure	n/a	n/a	n/a	1
163.942	0.616792588	JUROR	lure	n/a	n/a	n/a	1
164.558	0.447514518	TURPENTINE	lure	n/a	n/a	n/a	1
165.006	0.683324115	FOOTSTOOL	lure	n/a	n/a	n/a	1
165.689	1.016652265	BERRY	fruit	861	2	2	1
166.706	0.383327831	INFIELDER	lure	n/a	n/a	n/a	1
167.089	0.583403581	LAIR	lure	n/a	n/a	n/a	1
167.673	0.566579857	RIVERVIEW	lure	n/a	n/a	n/a	1
168.239	0.566710227	PINUP	lure	n/a	n/a	n/a	1
168.806	0.399938047	HOMELAND	lure	n/a	n/a	n/a	1
169.206	0.416664652	CARTWHEEL	lure	n/a	n/a	n/a	1
169.622	0.716657542	REFRACTION	lure	n/a	n/a	n/a	1
170.339	0.433323409	MANSION	lure	n/a	n/a	n/a	1
170.772	0.516663876	AMBIGUITY	lure	n/a	n/a	n/a	1
171.289	0.433372927	HEXAGRAM	lure	n/a	n/a	n/a	1
171.723	0.500005633	CROSSBAR	lure	n/a	n/a	n/a	1
172.223	0.616594292	FIREMAN	lure	n/a	n/a	n/a	1
172.839	0.583330746	HORSEPLAY	lure	n/a	n/a	n/a	1
173.422	0.516657763	WISHBONE	lure	n/a	n/a	n/a	1
173.939	2.016637513	FOAM	long	n/a	n/a	n/a	1
175.956	0.499993194	TRANSPORT	lure	n/a	n/a	n/a	1
176.456	0.466718829	MORPHINE	lure	n/a	n/a	n/a	1
176.922	0.399981232	ERRAND	lure	n/a	n/a	n/a	1
177.322	0.566664599	COGNAC	lure	n/a	n/a	n/a	1
177.889	0.683271333	CHEF	lure	n/a	n/a	n/a	1
178.572	0.349996972	LABORER	lure	n/a	n/a	n/a	1
178.922	0.399991743	MOONSTONE	lure	n/a	n/a	n/a	1
179.322	0.41666015	PANCAKE	lure	n/a	n/a	n/a	1
179.739	0.366661556	DEALER	lure	n/a	n/a	n/a	1
180.106	0.41666176	POET	lure	n/a	n/a	n/a	1
180.522	0.666656346	TREACHERY	lure	n/a	n/a	n/a	1
181.189	0.549991218	INFIELD	lure	n/a	n/a	n/a	1
181.739	0.699991751	CORVETTE	lure	n/a	n/a	n/a	1
182.439	0.616658179	PIANO	short	n/a	n/a	n/a	1
183.056	0.716656535	HEADHUNTER	lure	n/a	n/a	n/a	1
183.772	0.766654978	EUPHORIA	lure	n/a	n/a	n/a	1
184.539	0.666658444	CANON	lure	n/a	n/a	n/a	1
185.206	0.73332082	JARGON	lure	n/a	n/a	n/a	1
185.939	0.483322157	HOCKEY	lure	n/a	n/a	n/a	1
186.422	0.466664032	TURNOFF	lure	n/a	n/a	n/a	1
186.889	0.799988892	PASSAGE	lure	n/a	n/a	n/a	1
187.689	0.466659573	LOCKET	lure	n/a	n/a	n/a	1
188.156	0.333329256	GUNBOAT	lure	n/a	n/a	n/a	1
188.489	0.366662618	GROWTH	lure	n/a	n/a	n/a	1
188.856	0.416658748	DEFENSE	lure	n/a	n/a	n/a	1
189.272	0.516660795	OUTPOST	lure	n/a	n/a	n/a	1
189.789	0.499991991	UNION	lure	n/a	n/a	n/a	1
190.289	0.583321884	CONQUEROR	lure	n/a	n/a	n/a	1
190.872	1.016657653	STRAWBERRY	fruit	662	2	2	1
191.889	0.649987846	LAMBSKIN	lure	n/a	n/a	n/a	1
192.539	0.64999009	RUT	lure	n/a	n/a	n/a	1
193.189	0.666657745	DECEDENT	lure	n/a	n/a	n/a	1
193.855	0.416660335	TWOSOME	lure	n/a	n/a	n/a	1
194.272	0.649994438	SOUVENIR	lure	n/a	n/a	n/a	1
194.922	0.316657623	JOCKEY	lure	n/a	n/a	n/a	1
195.239	0.483329065	OWNERSHIP	lure	n/a	n/a	n/a	1
195.722	0.683320292	BRANDY	lure	n/a	n/a	n/a	1
196.405	0.69999168	LINEN	lure	n/a	n/a	n/a	1
197.105	0.716659605	WORKHOUSE	lure	n/a	n/a	n/a	1
197.822	0.549990196	WATCHBAND	lure	n/a	n/a	n/a	1
198.372	0.733321301	WATCHTOWER	lure	n/a	n/a	n/a	1
199.105	1.016746268	KIWI	fruit	661	2	2	1
200.122	0.549903777	GIRDLE	lure	n/a	n/a	n/a	1
200.672	0.652413857	CATALYST	lure	n/a	n/a	n/a	1
201.324	0.365560856	EJECTOR	lure	n/a	n/a	n/a	1
201.69	0.515565187	ANARCHY	lure	n/a	n/a	n/a	1
202.206	0.666421386	AORTA	lure	n/a	n/a	n/a	1
202.872	0.516719921	NUGGET	lure	n/a	n/a	n/a	1
203.389	0.533263991	ANCESTOR	lure	n/a	n/a	n/a	1
203.922	0.483331843	GUM	lure	n/a	n/a	n/a	1
204.405	0.716653655	MOTORBOAT	lure	n/a	n/a	n/a	1
205.122	0.566660092	INDOLENCE	lure	n/a	n/a	n/a	1
205.689	0.516656112	WHISKER	lure	n/a	n/a	n/a	1
206.205	0.449996218	PRUDE	lure	n/a	n/a	n/a	1
206.655	0.633322905	FLOORBOARD	lure	n/a	n/a	n/a	1
207.289	2.016642667	SANDPAPER	long	n/a	n/a	n/a	1
209.305	0.316658022	PROMPTER	lure	n/a	n/a	n/a	1
209.622	0.499992495	WHOPPER	lure	n/a	n/a	n/a	1
210.122	0.60004327	WRECKER	lure	n/a	n/a	n/a	1
210.722	0.566610228	WITCH	lure	n/a	n/a	n/a	1
211.289	0.449988363	GENTLEMEN	lure	n/a	n/a	n/a	1
211.739	0.633625359	DEUCE	lure	n/a	n/a	n/a	1
212.372	0.65361309	HALLWAY	lure	n/a	n/a	n/a	1
213.026	0.463515839	VISCOSITY	lure	n/a	n/a	n/a	1
213.489	0.51587833	GALLON	lure	n/a	n/a	n/a	1
214.005	0.533331121	KILT	lure	n/a	n/a	n/a	1
214.539	0.383380693	TALON	lure	n/a	n/a	n/a	1
214.922	0.333272178	JURIST	lure	n/a	n/a	n/a	1
215.255	0.766661602	HANDICAP	lure	n/a	n/a	n/a	1
216.022	0.616656592	CARAVAN	short	n/a	n/a	n/a	1
216.638	0.501500794	HARLOT	lure	n/a	n/a	n/a	1
217.14	0.450783583	FILAMENT	lure	n/a	n/a	n/a	1
217.591	0.564354574	DANCER	lure	n/a	n/a	n/a	1
218.155	0.499994793	CROPPER	lure	n/a	n/a	n/a	1
218.655	0.566660902	INCIDENT	lure	n/a	n/a	n/a	1
219.222	0.483327014	HYPOCRISY	lure	n/a	n/a	n/a	1
219.705	0.383326029	HORSEHAIR	lure	n/a	n/a	n/a	1
220.088	0.453674203	STEAMER	lure	n/a	n/a	n/a	1
220.542	0.446317591	SPEARMINT	lure	n/a	n/a	n/a	1
220.988	0.399994522	PLIGHT	lure	n/a	n/a	n/a	1
221.388	0.46665514	BOOKSELLER	lure	n/a	n/a	n/a	1
221.855	0.366661448	ENTERPRISE	lure	n/a	n/a	n/a	1
222.222	0.56665814	WINDSTORM	lure	n/a	n/a	n/a	1
222.788	0.699990706	PASSIVITY	lure	n/a	n/a	n/a	1
223.488	0.649993294	DAUGHTER	lure	n/a	n/a	n/a	1
224.138	0.516653076	BEDTIME	lure	n/a	n/a	n/a	1
224.655	0.483329029	HORIZON	lure	n/a	n/a	n/a	1
225.138	0.750082161	ESCAPEE	lure	n/a	n/a	n/a	1
225.888	0.716559009	MUSCLEMAN	lure	n/a	n/a	n/a	1
226.605	n/a	SHIRTWAIST	lure	n/a	n/a	n/a	1
238.008	0.730151249	LLAMA	lure	n/a	n/a	n/a	1
238.738	0.549992532	ASTHMA	lure	n/a	n/a	n/a	1
239.288	0.683322513	PROFESSOR	lure	n/a	n/a	n/a	1
239.971	0.549993782	PUZZLEMENT	lure	n/a	n/a	n/a	1
240.521	0.44999011	PURSUANCE	lure	n/a	n/a	n/a	1
240.971	0.74999359	PROVERB	lure	n/a	n/a	n/a	1
241.721	0.616654537	IMPRESSION	lure	n/a	n/a	n/a	1
242.338	0.616659274	SPARK	short	n/a	n/a	n/a	1
242.955	0.666657584	DIVISION	lure	n/a	n/a	n/a	1
243.621	0.533322635	COFFEE	lure	n/a	n/a	n/a	1
244.155	0.650067444	YOUTH	lure	n/a	n/a	n/a	1
244.805	0.616620438	SOCIETY	lure	n/a	n/a	n/a	1
245.421	0.533290177	PURSUER	lure	n/a	n/a	n/a	1
245.955	0.683413083	SUFFRAGE	lure	n/a	n/a	n/a	1
246.638	0.538032931	HOLSTER	lure	n/a	n/a	n/a	1
247.176	0.495194792	LABYRINTH	lure	n/a	n/a	n/a	1
247.671	0.599984953	CEREMONY	lure	n/a	n/a	n/a	1
248.271	0.466727279	BECK	lure	n/a	n/a	n/a	1
248.738	0.399932462	SHUTDOWN	lure	n/a	n/a	n/a	1
249.138	0.53338499	EGGNOG	lure	n/a	n/a	n/a	1
249.671	0.51660016	DOGMA	lure	n/a	n/a	n/a	1
250.188	0.533362677	DAME	lure	n/a	n/a	n/a	1
250.721	2.016601127	CLUB	long	n/a	n/a	n/a	1
252.738	0.683404731	LIMESTONE	lure	n/a	n/a	n/a	1
253.421	0.449912442	EMERGENCY	lure	n/a	n/a	n/a	1
253.871	0.699991181	HOUSE	lure	n/a	n/a	n/a	1
254.571	0.449991827	SNOOK	lure	n/a	n/a	n/a	1
255.021	0.566657394	BALLERINA	lure	n/a	n/a	n/a	1
255.588	0.433393293	CONCEIT	lure	n/a	n/a	n/a	1
256.021	0.399928988	CREDITOR	lure	n/a	n/a	n/a	1
256.421	0.599994408	MAILBOX	lure	n/a	n/a	n/a	1
257.021	0.699981199	IMMORALITY	lure	n/a	n/a	n/a	1
257.721	0.683331646	FOE	lure	n/a	n/a	n/a	1
258.405	0.749987653	HOSPITAL	lure	n/a	n/a	n/a	1
259.155	0.616657557	ASHES	short	n/a	n/a	n/a	1
259.771	0.599992009	ARCHETYPE	lure	n/a	n/a	n/a	1
260.371	0.349996258	MAGNITUDE	lure	n/a	n/a	n/a	1
260.721	0.633317922	IVORY	lure	n/a	n/a	n/a	1
261.355	0.350001136	INSTEP	lure	n/a	n/a	n/a	1
261.705	0.583323871	AIRLOCK	lure	n/a	n/a	n/a	1
262.288	0.566657882	CHAPLAIN	lure	n/a	n/a	n/a	1
262.854	0.716763383	CAUSATION	lure	n/a	n/a	n/a	1
263.571	0.716545244	REBEL	lure	n/a	n/a	n/a	1
264.288	0.450035017	GUEST	lure	n/a	n/a	n/a	1
264.738	0.749953447	APPLIANCE	lure	n/a	n/a	n/a	1
265.488	0.34999118	BRICKLAYER	lure	n/a	n/a	n/a	1
265.838	0.483331676	EASEL	lure	n/a	n/a	n/a	1
266.321	0.583322669	CHIMP	lure	n/a	n/a	n/a	1
266.904	0.35390408	SCRATCHPAD	lure	n/a	n/a	n/a	1
267.258	0.646146463	BELT	short	n/a	n/a	n/a	1
267.904	0.584984505	CONGRUENCE	lure	n/a	n/a	n/a	1
268.489	0.331607079	SOUNDTRACK	lure	n/a	n/a	n/a	1
268.821	0.483325342	BLOOMER	lure	n/a	n/a	n/a	1
269.304	0.350042943	RHEUMATISM	lure	n/a	n/a	n/a	1
269.654	0.499942796	LIEU	lure	n/a	n/a	n/a	1
270.154	0.533320478	COMPLEXION	lure	n/a	n/a	n/a	1
270.688	0.516665427	EGOISM	lure	n/a	n/a	n/a	1
271.204	0.499989497	EXTRACTOR	lure	n/a	n/a	n/a	1
271.704	0.483326483	MIDAIR	lure	n/a	n/a	n/a	1
272.188	0.366659042	DOORMAT	lure	n/a	n/a	n/a	1
272.554	0.666662624	EMPATHY	lure	n/a	n/a	n/a	1
273.221	0.583377989	OUTGROWTH	lure	n/a	n/a	n/a	1
273.804	0.499938623	SQUADRON	lure	n/a	n/a	n/a	1
274.304	0.433331299	RAINDROP	lure	n/a	n/a	n/a	1
274.738	0.566649325	SYSTEM	lure	n/a	n/a	n/a	1
275.304	0.583332909	Un/aEASON	lure	n/a	n/a	n/a	1
275.888	2.016635264	COLUMN	long	n/a	n/a	n/a	1
277.904	0.466662956	PLAYROOM	lure	n/a	n/a	n/a	1
278.371	0.699988024	LAWMEN	lure	n/a	n/a	n/a	1
279.071	0.749990524	BIOLOGIST	lure	n/a	n/a	n/a	1
279.821	0.533320419	MANTEL	lure	n/a	n/a	n/a	1
280.354	0.538134505	REGULATION	lure	n/a	n/a	n/a	1
280.892	0.495186414	DECIMATION	lure	n/a	n/a	n/a	1
281.388	0.766660417	TEETH	lure	n/a	n/a	n/a	1
282.154	0.54998304	HAT	lure	n/a	n/a	n/a	1
282.704	0.499995131	STRIPE	lure	n/a	n/a	n/a	1
283.204	0.683323338	TORT	lure	n/a	n/a	n/a	1
283.888	0.616661072	BRASS	short	n/a	n/a	n/a	1
284.504	0.583318721	CENTRALITY	lure	n/a	n/a	n/a	1
285.087	0.599994114	FADEOUT	lure	n/a	n/a	n/a	1
285.687	0.400045347	LIP	lure	n/a	n/a	n/a	1
286.088	0.516606151	DREAMBOAT	lure	n/a	n/a	n/a	1
286.604	0.416716333	METHYL	lure	n/a	n/a	n/a	1
287.021	0.499937656	PEACE	lure	n/a	n/a	n/a	1
287.521	0.433331014	INHALER	lure	n/a	n/a	n/a	1
287.954	0.549994809	FACSIMILE	lure	n/a	n/a	n/a	1
288.504	0.66665797	DRAGNET	lure	n/a	n/a	n/a	1
289.171	0.349994601	TONIC	lure	n/a	n/a	n/a	1
289.521	0.466654551	BABE	lure	n/a	n/a	n/a	1
289.987	0.366661944	JEWELRY	lure	n/a	n/a	n/a	1
290.354	0.568632784	PAPERWORK	lure	n/a	n/a	n/a	1
290.923	0.532564113	BLOWGUN	lure	n/a	n/a	n/a	1
291.455	0.498783603	CENTRIFUGE	lure	n/a	n/a	n/a	1
291.954	2.016633374	RIDGE	long	n/a	n/a	n/a	1
293.971	0.699989883	DOC	lure	n/a	n/a	n/a	1
294.671	0.616664673	STAIRWELL	lure	n/a	n/a	n/a	1
295.287	0.749982268	FEUDALISM	lure	n/a	n/a	n/a	1
296.037	0.56665604	FORBEAR	lure	n/a	n/a	n/a	1
296.604	0.616657086	REPENTANCE	lure	n/a	n/a	n/a	1
297.221	0.450001567	HEDONIST	lure	n/a	n/a	n/a	1
297.671	0.466656138	FEET	lure	n/a	n/a	n/a	1
298.137	0.666662673	VISE	lure	n/a	n/a	n/a	1
298.804	0.68331441	CONQUEST	lure	n/a	n/a	n/a	1
299.487	0.766659801	GAMEKEEPER	lure	n/a	n/a	n/a	1
300.254	0.749985572	DYSLEXIA	lure	n/a	n/a	n/a	1
301.004	0.616666171	PIANO	short	n/a	n/a	n/a	1
301.621	0.733313254	DOCILITY	lure	n/a	n/a	n/a	1
302.354	0.433336767	LIVELIHOOD	lure	n/a	n/a	n/a	1
302.787	0.549991078	EYEBROW	lure	n/a	n/a	n/a	1
303.337	0.733323775	MISTLETOE	lure	n/a	n/a	n/a	1
304.071	0.683321546	SOUL	lure	n/a	n/a	n/a	1
304.754	0.416662565	VOCALIST	lure	n/a	n/a	n/a	1
305.171	0.683317065	WATCHDOG	lure	n/a	n/a	n/a	1
305.854	0.649988732	METEOROID	lure	n/a	n/a	n/a	1
306.504	0.466668789	MARLIN	lure	n/a	n/a	n/a	1
306.971	0.716650515	REPUTATION	lure	n/a	n/a	n/a	1
307.687	0.633360743	CHURCHYARD	lure	n/a	n/a	n/a	1
308.321	0.616627066	METHANE	lure	n/a	n/a	n/a	1
308.937	0.699987575	TURNABOUT	lure	n/a	n/a	n/a	1
309.637	2.04997146	SANDPAPER	long	n/a	n/a	n/a	1
311.687	0.549987967	STALLION	lure	n/a	n/a	n/a	1
312.237	0.6999935	HUBCAP	lure	n/a	n/a	n/a	1
312.937	0.333321699	HARDTACK	lure	n/a	n/a	n/a	1
313.27	0.599998178	OSCILLATOR	lure	n/a	n/a	n/a	1
313.87	0.616656342	CORPORAL	lure	n/a	n/a	n/a	1
314.487	0.366656211	HIKER	lure	n/a	n/a	n/a	1
314.854	0.683332668	VENGEANCE	lure	n/a	n/a	n/a	1
315.537	0.666653541	AIDE	lure	n/a	n/a	n/a	1
316.204	0.366656649	SEAFRONT	lure	n/a	n/a	n/a	1
316.57	0.466659027	ROSEWOOD	lure	n/a	n/a	n/a	1
317.037	0.416663078	PLEASANTRY	lure	n/a	n/a	n/a	1
317.454	0.683321872	ELK	lure	n/a	n/a	n/a	1
318.137	1.01668563	APPLE	fruit	949	2	2	1
319.154	0.749959994	RETRACTION	lure	n/a	n/a	n/a	1
319.904	0.516657278	MIDSHIP	lure	n/a	n/a	n/a	1
320.42	0.633324529	TRIPOD	lure	n/a	n/a	n/a	1
321.054	0.649994247	HARDBOARD	lure	n/a	n/a	n/a	1
321.704	0.549989364	COLLUSION	lure	n/a	n/a	n/a	1
322.254	0.749989499	TOOLMAKER	lure	n/a	n/a	n/a	1
323.004	0.783320308	TURNAROUND	lure	n/a	n/a	n/a	1
323.787	0.383328642	NOTEPAPER	lure	n/a	n/a	n/a	1
324.17	0.316659683	DILATION	lure	n/a	n/a	n/a	1
324.487	0.74998906	HANGOVER	lure	n/a	n/a	n/a	1
325.237	0.566660293	ALTITUDE	lure	n/a	n/a	n/a	1
325.804	0.417374116	REALITY	lure	n/a	n/a	n/a	1
326.221	1.019574427	RASPBERRY	fruit	689	2	2	1
327.241	0.57969328	CINDER	lure	n/a	n/a	n/a	1
327.82	0.399992116	ASSESSOR	lure	n/a	n/a	n/a	1
328.22	0.733322635	RELIEF	lure	n/a	n/a	n/a	1
328.954	0.783321614	CAPTIVITY	lure	n/a	n/a	n/a	1
329.737	0.566663574	INVESTOR	lure	n/a	n/a	n/a	1
330.304	0.720913953	COSTUMER	lure	n/a	n/a	n/a	1
331.024	0.71239484	SPECIALTY	lure	n/a	n/a	n/a	1
331.737	0.63332709	SNOBBERY	lure	n/a	n/a	n/a	1
332.37	0.699988989	LOON	lure	n/a	n/a	n/a	1
333.07	0.649992045	SAMBA	lure	n/a	n/a	n/a	1
333.72	0.766653156	HEARTH	lure	n/a	n/a	n/a	1
334.487	0.616658146	MATTER	short	n/a	n/a	n/a	1
335.103	0.416658249	KAISER	lure	n/a	n/a	n/a	1
335.52	0.783389163	VENTRICLE	lure	n/a	n/a	n/a	1
336.303	0.51659169	CARTOON	lure	n/a	n/a	n/a	1
336.82	0.43332978	DYNAMITE	lure	n/a	n/a	n/a	1
337.253	0.649985831	PROPRIETY	lure	n/a	n/a	n/a	1
337.903	0.599997657	KNAPSACK	lure	n/a	n/a	n/a	1
338.503	0.566653859	GUILD	lure	n/a	n/a	n/a	1
339.07	0.633363735	TRADEMARK	lure	n/a	n/a	n/a	1
339.703	0.316620967	ROCKETRY	lure	n/a	n/a	n/a	1
340.02	0.633325616	HORSESHOE	lure	n/a	n/a	n/a	1
340.653	0.516657871	UPPERCUT	lure	n/a	n/a	n/a	1
341.17	0.701335284	BOOKER	lure	n/a	n/a	n/a	1
341.871	0.531986564	DRIFTWOOD	lure	n/a	n/a	n/a	1
342.403	0.733316905	SYNC	lure	n/a	n/a	n/a	1
343.137	2.016642677	FOAM	long	n/a	n/a	n/a	1
345.153	0.466697504	DESERTION	lure	n/a	n/a	n/a	1
345.62	0.416620222	MATCHBOX	lure	n/a	n/a	n/a	1
346.037	0.383327988	INGREDIENT	lure	n/a	n/a	n/a	1
346.42	0.649988649	PACEMAKER	lure	n/a	n/a	n/a	1
347.07	0.716662337	MUTUALITY	lure	n/a	n/a	n/a	1
347.787	0.399987787	RANGER	lure	n/a	n/a	n/a	1
348.187	0.534011934	SOLEMNITY	lure	n/a	n/a	n/a	1
348.721	0.332701886	POOCH	lure	n/a	n/a	n/a	1
349.053	0.549938723	FOYER	lure	n/a	n/a	n/a	1
349.603	0.583395877	DEN	lure	n/a	n/a	n/a	1
350.187	0.549914645	ECONOMY	lure	n/a	n/a	n/a	1
350.737	0.433332964	INACTION	lure	n/a	n/a	n/a	1
351.17	2.016632605	RACKET	long	n/a	n/a	n/a	1
353.187	0.666659013	PARABLE	lure	n/a	n/a	n/a	1
353.853	0.516657487	ANYBODY	lure	n/a	n/a	n/a	1
354.37	0.499996318	AMBROSIA	lure	n/a	n/a	n/a	1
354.87	0.449994185	PAD	lure	n/a	n/a	n/a	1
355.32	0.599992405	MORNING	lure	n/a	n/a	n/a	1
355.92	0.434823574	ARMOR	lure	n/a	n/a	n/a	1
356.355	0.365160271	MANGER	lure	n/a	n/a	n/a	1
356.72	0.633327787	ROLE	lure	n/a	n/a	n/a	1
357.353	0.333325616	FLAPPER	lure	n/a	n/a	n/a	1
357.686	0.516660061	DOER	lure	n/a	n/a	n/a	1
358.203	0.433330662	BEARD	lure	n/a	n/a	n/a	1
358.636	0.566654778	BARRAGE	lure	n/a	n/a	n/a	1
359.203	0.466661988	ORPHANAGE	lure	n/a	n/a	n/a	1
359.67	2.049970693	TART	long	n/a	n/a	n/a	1
361.72	0.616657167	EYESORE	lure	n/a	n/a	n/a	1
362.336	0.500481665	FREQUENCY	lure	n/a	n/a	n/a	1
362.837	0.349507209	BADMINTON	lure	n/a	n/a	n/a	1
363.186	0.716654063	RESEARCHER	lure	n/a	n/a	n/a	1
363.903	0.466660192	SYNTAX	lure	n/a	n/a	n/a	1
364.37	0.649992853	QUANTUM	lure	n/a	n/a	n/a	1
365.02	0.549993107	QUOTIENT	lure	n/a	n/a	n/a	1
365.57	0.433321367	JOVIALITY	lure	n/a	n/a	n/a	1
366.003	0.350000663	FIREMEN	lure	n/a	n/a	n/a	1
366.353	0.483325466	VANTAGE	lure	n/a	n/a	n/a	1
366.836	0.649988035	ATOM	lure	n/a	n/a	n/a	1
367.486	0.516657324	SWORD	lure	n/a	n/a	n/a	1
368.003	2.016643208	PYRAMID	long	n/a	n/a	n/a	1
370.02	0.633319027	SUNFLOWER	lure	n/a	n/a	n/a	1
370.653	0.499997762	BLOWER	lure	n/a	n/a	n/a	1
371.153	0.466654728	SLUGGER	lure	n/a	n/a	n/a	1
371.62	0.633330026	OVERPRINT	lure	n/a	n/a	n/a	1
372.253	0.333324777	APPETIZER	lure	n/a	n/a	n/a	1
372.586	0.399994312	KITTY	lure	n/a	n/a	n/a	1
372.986	0.633327249	JUDGMENT	lure	n/a	n/a	n/a	1
373.62	0.449989246	BETTERMENT	lure	n/a	n/a	n/a	1
374.07	0.516664609	MALLET	lure	n/a	n/a	n/a	1
374.586	0.49998683	CASHEW	lure	n/a	n/a	n/a	1
375.086	0.749993595	FEMINISM	lure	n/a	n/a	n/a	1
375.836	0.600046116	RECITAL	lure	n/a	n/a	n/a	1
376.436	1.016596525	STRAWBERRY	fruit	682	2	2	1
377.453	0.316661145	COACHMEN	lure	n/a	n/a	n/a	1
377.77	0.383331069	COMPLEMENT	lure	n/a	n/a	n/a	1
378.153	0.349992279	KARATE	lure	n/a	n/a	n/a	1
378.503	0.566659966	HARDCOVER	lure	n/a	n/a	n/a	1
379.069	0.316662737	AMNESTY	lure	n/a	n/a	n/a	1
379.386	0.716651805	FANFARE	lure	n/a	n/a	n/a	1
380.103	0.449995591	HOTHEAD	lure	n/a	n/a	n/a	1
380.553	0.349992971	TRUMPETER	lure	n/a	n/a	n/a	1
380.903	0.733324793	TORNADO	lure	n/a	n/a	n/a	1
381.636	0.583324431	COCKATOO	lure	n/a	n/a	n/a	1
382.219	0.720057994	MICROSCOPY	lure	n/a	n/a	n/a	1
382.939	0.329981081	SHEET	lure	n/a	n/a	n/a	1
383.269	0.75414624	PAGEANT	lure	n/a	n/a	n/a	1
384.024	0.479117653	SWATTER	lure	n/a	n/a	n/a	1
384.503	0.616656936	CITY	short	n/a	n/a	n/a	1
385.119	0.449993521	QUART	lure	n/a	n/a	n/a	1
385.569	0.516655762	SNOWFLAKE	lure	n/a	n/a	n/a	1
386.086	0.766662319	HAKE	lure	n/a	n/a	n/a	1
386.853	0.533325527	DEVICE	lure	n/a	n/a	n/a	1
387.386	0.483320835	SENTRY	lure	n/a	n/a	n/a	1
387.869	0.616661759	PERCUSSION	lure	n/a	n/a	n/a	1
388.486	0.599994062	SCUBA	lure	n/a	n/a	n/a	1
389.086	0.333321317	PUFFER	lure	n/a	n/a	n/a	1
389.419	0.666723269	LACROSSE	lure	n/a	n/a	n/a	1
390.086	0.383265749	BENCH	lure	n/a	n/a	n/a	1
390.469	0.616654378	EXPERTISE	lure	n/a	n/a	n/a	1
391.086	0.399994829	EXPANSION	lure	n/a	n/a	n/a	1
391.486	0.499994033	POLICY	lure	n/a	n/a	n/a	1
391.986	0.44999455	PROTECTION	lure	n/a	n/a	n/a	1
392.436	2.016636569	SAIL	long	n/a	n/a	n/a	1
394.453	0.683327104	COTTONTAIL	lure	n/a	n/a	n/a	1
395.136	0.71665556	COGNITION	lure	n/a	n/a	n/a	1
395.853	0.499991895	CLOVERLEAF	lure	n/a	n/a	n/a	1
396.353	0.766656142	GENIE	lure	n/a	n/a	n/a	1
397.119	0.616657087	NUTRIENT	lure	n/a	n/a	n/a	1
397.736	0.417846388	DISHARMONY	lure	n/a	n/a	n/a	1
398.154	0.652507898	TESTICLE	lure	n/a	n/a	n/a	1
398.806	0.746285045	WILDCAT	lure	n/a	n/a	n/a	1
399.553	0.649994389	RACETRACK	lure	n/a	n/a	n/a	1
400.203	0.366658736	DUD	lure	n/a	n/a	n/a	1
400.569	0.616658538	BUCKET	short	n/a	n/a	n/a	1
401.186	0.349994305	GIRLHOOD	lure	n/a	n/a	n/a	1
401.536	0.649991157	STREAKER	lure	n/a	n/a	n/a	1
402.186	0.533329353	KICKOFF	lure	n/a	n/a	n/a	1
402.719	0.666653481	LOGIC	lure	n/a	n/a	n/a	1
403.386	0.666660907	ELECTRON	lure	n/a	n/a	n/a	1
404.052	0.500030392	ACTIVIST	lure	n/a	n/a	n/a	1
404.552	0.416622121	RESISTOR	lure	n/a	n/a	n/a	1
404.969	0.499992683	MARGARINE	lure	n/a	n/a	n/a	1
405.469	0.316705325	TAILPIECE	lure	n/a	n/a	n/a	1
405.786	0.416613751	GRINDER	lure	n/a	n/a	n/a	1
406.202	0.583325584	CADENCE	lure	n/a	n/a	n/a	1
406.786	0.566660366	ADOPTION	lure	n/a	n/a	n/a	1
407.352	0.783322137	HEADLIGHT	lure	n/a	n/a	n/a	1
408.136	0.549987742	PRIVACY	lure	n/a	n/a	n/a	1
408.686	1.016655028	MULBERRY	fruit	n/a	n/a	2	0
409.702	0.666661442	DISASTER	lure	136	2	n/a	0
410.369	0.716654651	OUTPOURING	lure	n/a	n/a	n/a	1
411.086	0.633322068	TENEMENT	lure	n/a	n/a	n/a	1
411.719	0.499995237	FINALE	lure	n/a	n/a	n/a	1
412.219	0.366658538	CHALLENGER	lure	n/a	n/a	n/a	1
412.586	0.583326704	PARKWAY	lure	n/a	n/a	n/a	1
413.169	0.316707669	MEADOW	lure	n/a	n/a	n/a	1
413.486	0.733276174	REGISTRAR	lure	n/a	n/a	n/a	1
414.219	0.416663099	BREAKWATER	lure	n/a	n/a	n/a	1
414.636	0.43332716	ENTRAPMENT	lure	n/a	n/a	n/a	1
415.069	0.350044356	DETECTION	lure	n/a	n/a	n/a	1
415.419	0.666829591	PEn/aCE	lure	n/a	n/a	n/a	1
416.086	0.633100878	WHARF	lure	n/a	n/a	n/a	1
416.719	2.016639932	COUNCIL	long	n/a	n/a	n/a	1
418.736	0.583362585	REMODEL	lure	n/a	n/a	n/a	1
419.319	0.550001779	SUSPENSE	lure	n/a	n/a	n/a	1
419.869	0.383319587	CHIFFON	lure	n/a	n/a	n/a	1
420.252	0.499950991	CREED	lure	n/a	n/a	n/a	1
420.752	0.333329757	SHEEPDOG	lure	n/a	n/a	n/a	1
421.086	0.600028967	SOAPSTONE	lure	n/a	n/a	n/a	1
421.686	0.399951678	SODA	lure	n/a	n/a	n/a	1
422.086	0.668551761	SPADE	lure	n/a	n/a	n/a	1
422.754	0.365621079	FOOTSTEP	lure	n/a	n/a	n/a	1
423.12	0.432514146	HORROR	lure	n/a	n/a	n/a	1
423.552	0.666620661	NAPE	lure	n/a	n/a	n/a	1
424.219	0.649988439	HANDBOOK	lure	n/a	n/a	n/a	1
424.869	0.649990682	MASTERY	lure	n/a	n/a	n/a	1
425.519	0.666657173	NOVEL	short	n/a	n/a	n/a	1
426.185	0.533324367	ATTAINMENT	lure	n/a	n/a	n/a	1
426.719	0.466660073	REGIMEN	lure	n/a	n/a	n/a	1
427.185	0.466661707	FURY	lure	n/a	n/a	n/a	1
427.652	0.649993427	ENVOY	lure	n/a	n/a	n/a	1
428.302	0.333325796	CARTEL	lure	n/a	n/a	n/a	1
428.635	0.48332361	SKIRMISH	lure	n/a	n/a	n/a	1
429.119	0.699990868	REHASH	lure	n/a	n/a	n/a	1
429.819	0.433687592	PROMINENCE	lure	n/a	n/a	n/a	1
430.252	0.48296494	SLINGSHOT	lure	n/a	n/a	n/a	1
430.735	0.816658311	POSTAGE	lure	n/a	n/a	n/a	1
431.552	0.68332603	COURIER	lure	n/a	n/a	n/a	1
432.235	0.316658704	REVERIE	lure	n/a	n/a	n/a	1
432.552	0.670725146	CHAIRMAN	lure	n/a	n/a	n/a	1
433.223	0.645924633	SPIRE	lure	n/a	n/a	n/a	1
433.869	1.01665266	PEACH	fruit	n/a	n/a	2	0
434.885	0.59999157	PENSION	lure	n/a	n/a	n/a	1
435.485	0.316661607	PARAGRAPH	lure	n/a	n/a	n/a	1
435.802	0.366658297	POSTCARD	lure	n/a	n/a	n/a	1
436.169	0.516659724	WASHBASIN	lure	n/a	n/a	n/a	1
436.685	0.416662902	UNCLE	lure	n/a	n/a	n/a	1
437.102	0.383329335	SUMMIT	lure	n/a	n/a	n/a	1
437.485	0.599991868	WATCHMAKER	lure	n/a	n/a	n/a	1
438.085	0.633318309	INDICTMENT	lure	n/a	n/a	n/a	1
438.719	0.733328786	REDUNDANCY	lure	n/a	n/a	n/a	1
439.452	0.49999103	DOZEN	lure	n/a	n/a	n/a	1
439.952	0.449993657	ANTHEM	lure	n/a	n/a	n/a	1
440.402	0.66665876	WILDFIRE	lure	n/a	n/a	n/a	1
441.069	0.33333115	DUCKY	lure	n/a	n/a	n/a	1
441.402	0.583325085	TOURNAMENT	lure	n/a	n/a	n/a	1
441.985	0.650037937	CARAVAN	short	n/a	n/a	n/a	1
442.635	0.733273177	ABSTINENCE	lure	n/a	n/a	n/a	1
443.369	0.383327491	DIALOGUE	lure	n/a	n/a	n/a	1
443.752	0.666660412	ADMIRATION	lure	n/a	n/a	n/a	1
444.419	0.333322289	SWEATER	lure	n/a	n/a	n/a	1
444.752	0.599992645	TROPHY	lure	n/a	n/a	n/a	1
445.352	0.699990138	GOSPEL	lure	n/a	n/a	n/a	1
446.052	0.366662379	PHARMACY	lure	n/a	n/a	n/a	1
446.419	0.699993904	MELANCHOLY	lure	n/a	n/a	n/a	1
447.119	0.716647998	ENEMY	lure	n/a	n/a	n/a	1
447.835	0.749992912	MUD	lure	n/a	n/a	n/a	1
448.585	0.683327139	GUSHER	lure	n/a	n/a	n/a	1
449.268	0.733318956	VIRTUOSITY	lure	n/a	n/a	n/a	1
450.002	1.016706051	KIWI	fruit	693	2	2	1
451.019	0.349942959	REDCOAT	lure	n/a	n/a	n/a	1
451.368	0.383322813	PALATE	lure	n/a	n/a	n/a	1
451.752	0.333384397	CLIENT	lure	n/a	n/a	n/a	1
452.085	0.433278959	CHAPEL	lure	n/a	n/a	n/a	1
452.518	0.61665825	NUN	lure	n/a	n/a	n/a	1
453.135	0.583316514	VITALISM	lure	n/a	n/a	n/a	1
453.718	0.716660386	VIRILITY	lure	n/a	n/a	n/a	1
454.435	0.749987861	REPETITION	lure	n/a	n/a	n/a	1
455.185	0.583328838	EXTENSION	lure	n/a	n/a	n/a	1
455.768	0.58712222	BUFFALO	lure	n/a	n/a	n/a	1
456.356	0.465561141	ADULTHOOD	lure	n/a	n/a	n/a	1
456.821	0.714570702	SHERIFF	lure	n/a	n/a	n/a	1
457.536	0.382714651	OMEN	lure	n/a	n/a	n/a	1
457.918	0.466657902	HEMLINE	lure	n/a	n/a	n/a	1
458.385	0.633329569	LARD	lure	n/a	n/a	n/a	1
459.018	0.699984168	GUESTHOUSE	lure	n/a	n/a	n/a	1
459.718	0.783319016	LOYALTY	lure	n/a	n/a	n/a	1
460.502	0.350886295	BEDSPREAD	lure	n/a	n/a	n/a	1
460.853	0.552565767	CENSORSHIP	lure	n/a	n/a	n/a	1
461.405	0.763195645	RASH	lure	n/a	n/a	n/a	1
462.168	0.366665332	ALBINO	lure	n/a	n/a	n/a	1
462.535	0.699986895	RELIGION	lure	n/a	n/a	n/a	1
463.235	0.449995256	REVOLVER	lure	n/a	n/a	n/a	1
463.685	0.34998976	PRESIDENCY	lure	n/a	n/a	n/a	1
464.035	0.399992774	BIOLOGY	lure	n/a	n/a	n/a	1
464.435	0.533327421	AFFAIR	lure	n/a	n/a	n/a	1
464.968	n/a	RECTIFIER	lure	n/a	n/a	n/a	1