onset	duration	stim	cond	RT	resp	cresp	acc
4.038	0.766658772	STATISTIC	lure	n/a	n/a	n/a	1
4.805	0.416658369	PENGUIN	lure	n/a	n/a	n/a	1
5.222	0.56669978	OCCUPATION	lure	n/a	n/a	n/a	1
5.788	0.316624717	HYDROPLANE	lure	n/a	n/a	n/a	1
6.105	0.5999914	DISTURBER	lure	n/a	n/a	n/a	1
6.705	0.600943154	POOF	lure	n/a	n/a	n/a	1
7.306	0.615702094	POETRY	lure	n/a	n/a	n/a	1
7.922	1.016655966	ORANGE	fruit	707	2	2	1
8.938	0.53331958	MEDIATION	lure	n/a	n/a	n/a	1
9.472	0.566657183	CLAMPDOWN	lure	n/a	n/a	n/a	1
10.038	0.483335844	LIPID	lure	n/a	n/a	n/a	1
10.522	0.583324185	FOOTPRINT	lure	n/a	n/a	n/a	1
11.105	0.733323171	DRESSMAKER	lure	n/a	n/a	n/a	1
11.838	0.399990124	PARENT	lure	n/a	n/a	n/a	1
12.238	0.549994388	ARMFUL	lure	n/a	n/a	n/a	1
12.788	0.749988981	YARN	lure	n/a	n/a	n/a	1
13.538	0.466658483	GENERATOR	lure	n/a	n/a	n/a	1
14.005	0.616663589	BARBELL	lure	n/a	n/a	n/a	1
14.622	0.64998859	ADDITION	lure	n/a	n/a	n/a	1
15.272	0.533322292	DRONE	lure	n/a	n/a	n/a	1
15.805	0.633321924	MEMORIAL	lure	n/a	n/a	n/a	1
16.438	1.016655028	PLUM	fruit	670	2	2	1
17.455	0.384465185	REDDING	lure	n/a	n/a	n/a	1
17.839	0.565520631	SPRAYER	lure	n/a	n/a	n/a	1
18.405	0.666657403	MANE	lure	n/a	n/a	n/a	1
19.072	0.33332785	GRIFFIN	lure	n/a	n/a	n/a	1
19.405	0.649991126	LIBATION	lure	n/a	n/a	n/a	1
20.055	0.533325965	ETHANOL	lure	n/a	n/a	n/a	1
20.588	0.449995298	DEDUCTION	lure	n/a	n/a	n/a	1
21.038	0.650050924	INCURSION	lure	n/a	n/a	n/a	1
21.688	0.616657115	MEDIUM	lure	n/a	n/a	n/a	1
22.305	0.733325194	INIQUITY	lure	n/a	n/a	n/a	1
23.038	0.666636992	PASSERBY	lure	n/a	n/a	n/a	1
23.705	0.46661249	SUBSECTION	lure	n/a	n/a	n/a	1
24.171	0.349999492	PENTHOUSE	lure	n/a	n/a	n/a	1
24.521	0.61665759	CITY	short	n/a	n/a	n/a	1
25.138	0.749985656	GENEROSITY	lure	n/a	n/a	n/a	1
25.888	0.716658555	LADY	lure	n/a	n/a	n/a	1
26.605	0.483329063	PHONOGRAPH	lure	n/a	n/a	n/a	1
27.088	0.416656632	ROADWAY	lure	n/a	n/a	n/a	1
27.505	0.36666524	NOSTALGIA	lure	n/a	n/a	n/a	1
27.871	0.316722843	CHOWDER	lure	n/a	n/a	n/a	1
28.188	0.683262285	SALIVA	lure	n/a	n/a	n/a	1
28.871	0.399994272	AUDITION	lure	n/a	n/a	n/a	1
29.271	0.753919228	CLUBHOUSE	lure	n/a	n/a	n/a	1
30.025	0.579396225	PRECISION	lure	n/a	n/a	n/a	1
30.605	0.683324065	SALIVATION	lure	n/a	n/a	n/a	1
31.288	0.399991783	RESOLUTION	lure	n/a	n/a	n/a	1
31.688	0.549992238	ARCHAISM	lure	n/a	n/a	n/a	1
32.238	0.566657682	SURREALIST	lure	n/a	n/a	n/a	1
32.805	0.620745688	CARAVAN	short	n/a	n/a	n/a	1
33.425	0.363798301	VIGILANTE	lure	n/a	n/a	n/a	1
33.789	0.732096598	MARKUP	lure	n/a	n/a	n/a	1
34.521	0.766661572	SUPERMAN	lure	n/a	n/a	n/a	1
35.288	0.549989256	JAR	lure	n/a	n/a	n/a	1
35.838	0.449992498	BAYOU	lure	n/a	n/a	n/a	1
36.288	0.683323378	CLERK	lure	n/a	n/a	n/a	1
36.971	0.350044341	CANYON	lure	n/a	n/a	n/a	1
37.321	0.483280119	BARBARIAN	lure	n/a	n/a	n/a	1
37.805	0.499989989	CAMOMILE	lure	n/a	n/a	n/a	1
38.305	0.699991092	EXPEDIENCY	lure	n/a	n/a	n/a	1
39.005	0.416658599	KNOCKOUT	lure	n/a	n/a	n/a	1
39.421	0.56666107	ACCESSORY	lure	n/a	n/a	n/a	1
39.988	0.583325326	QUICHE	lure	n/a	n/a	n/a	1
40.571	0.499991006	RESIN	lure	n/a	n/a	n/a	1
41.071	2.016635074	PYRAMID	long	n/a	n/a	n/a	1
43.088	0.400001242	TROTH	lure	n/a	n/a	n/a	1
43.488	0.537169765	CLAY	lure	n/a	n/a	n/a	1
44.025	0.600566706	CONSTANCY	lure	n/a	n/a	n/a	1
44.626	0.662233369	BUCCANEER	lure	n/a	n/a	n/a	1
45.288	0.549988989	PLAYBILL	lure	n/a	n/a	n/a	1
45.838	0.583325506	BATHROBE	lure	n/a	n/a	n/a	1
46.421	0.483330056	SPATULA	lure	n/a	n/a	n/a	1
46.905	0.449993675	COCKROACH	lure	n/a	n/a	n/a	1
47.355	0.716654662	MOOSE	lure	n/a	n/a	n/a	1
48.071	0.683324556	COMPASSION	lure	n/a	n/a	n/a	1
48.754	0.621405909	NAMESAKE	lure	n/a	n/a	n/a	1
49.376	1.015577452	BAn/aA	fruit	636	2	2	1
50.391	0.362990963	WATERLINE	lure	n/a	n/a	n/a	1
50.754	0.5999847	CAMERA	lure	n/a	n/a	n/a	1
51.354	0.533329119	PACKET	lure	n/a	n/a	n/a	1
51.888	0.716655011	BOUQUET	lure	n/a	n/a	n/a	1
52.604	0.516662845	SLEW	lure	n/a	n/a	n/a	1
53.121	0.737272738	FAD	lure	n/a	n/a	n/a	1
53.858	0.446041441	TUBA	lure	n/a	n/a	n/a	1
54.304	0.466663388	BRAVERY	lure	n/a	n/a	n/a	1
54.771	0.699980913	LOOKER	lure	n/a	n/a	n/a	1
55.471	0.349999224	MORROW	lure	n/a	n/a	n/a	1
55.821	0.449994739	STOCKROOM	lure	n/a	n/a	n/a	1
56.271	0.649989334	LUSTRE	lure	n/a	n/a	n/a	1
56.921	0.366663588	GROWER	lure	n/a	n/a	n/a	1
57.288	0.599993167	AGENCY	lure	n/a	n/a	n/a	1
57.888	0.616653119	BELT	short	n/a	n/a	n/a	1
58.504	0.499994718	COMEDOWN	lure	n/a	n/a	n/a	1
59.004	0.683323749	BLAZER	lure	n/a	n/a	n/a	1
59.688	0.399989795	EMPHYSEMA	lure	n/a	n/a	n/a	1
60.088	0.716659465	SHELF	lure	n/a	n/a	n/a	1
60.804	0.616661738	OVERLORD	lure	n/a	n/a	n/a	1
61.421	0.466657631	BROWNING	lure	n/a	n/a	n/a	1
61.888	0.733321758	EXTINCTION	lure	n/a	n/a	n/a	1
62.621	0.583323338	STATUTE	lure	n/a	n/a	n/a	1
63.204	0.749994659	WITHDRAWAL	lure	n/a	n/a	n/a	1
63.954	0.716651631	TROTTER	lure	n/a	n/a	n/a	1
64.671	0.566656844	MISCOUNT	lure	n/a	n/a	n/a	1
65.238	0.549995767	LAD	lure	n/a	n/a	n/a	1
65.788	0.433328128	MIGRAINE	lure	n/a	n/a	n/a	1
66.221	2.016634109	FOAM	long	1104	2	n/a	0
68.238	0.666661154	VAN	lure	n/a	n/a	n/a	1
68.904	0.683320373	BUNT	lure	n/a	n/a	n/a	1
69.588	0.366663811	GODMOTHER	lure	n/a	n/a	n/a	1
69.954	0.499993102	BOOKBINDER	lure	n/a	n/a	n/a	1
70.454	0.416661715	PAPERBACK	lure	n/a	n/a	n/a	1
70.871	0.733327036	BRONCO	lure	n/a	n/a	n/a	1
71.604	0.566689042	SPARKLER	lure	n/a	n/a	n/a	1
72.171	0.333351378	ASTROLOGY	lure	n/a	n/a	n/a	1
72.504	0.599933861	ESCAPADE	lure	n/a	n/a	n/a	1
73.104	0.399992332	MONUMENT	lure	n/a	n/a	n/a	1
73.504	0.649987942	ALOE	lure	n/a	n/a	n/a	1
74.154	0.6333282	DESTINY	lure	n/a	n/a	n/a	1
74.787	1.049983282	PINEAPPLE	fruit	673	2	2	1
75.837	0.46666224	GIBBERISH	lure	n/a	n/a	n/a	1
76.304	0.466662907	SIDEKICK	lure	n/a	n/a	n/a	1
76.771	0.316656093	ROUNDUP	lure	n/a	n/a	n/a	1
77.087	0.716659094	COMMUTER	lure	n/a	n/a	n/a	1
77.804	0.383325803	GARDENIA	lure	n/a	n/a	n/a	1
78.187	0.64999188	REDSKIN	lure	n/a	n/a	n/a	1
78.837	0.699995335	REBOUND	lure	n/a	n/a	n/a	1
79.537	0.483366952	SEAWEED	lure	n/a	n/a	n/a	1
80.021	0.383279166	CHECKUP	lure	n/a	n/a	n/a	1
80.404	0.383328676	AFTERLIFE	lure	n/a	n/a	n/a	1
80.787	0.649986666	MANATEE	lure	n/a	n/a	n/a	1
81.437	0.416667022	TULIP	lure	n/a	n/a	n/a	1
81.854	0.6333797	INJUNCTION	lure	n/a	n/a	n/a	1
82.487	0.349937997	BEAGLE	lure	n/a	n/a	n/a	1
82.837	2.016639688	RIDGE	long	n/a	n/a	n/a	1
84.854	0.649990392	LEGION	lure	n/a	n/a	n/a	1
85.504	0.450051975	ENTHUSIAST	lure	n/a	n/a	n/a	1
85.954	0.666599927	DESPERADO	lure	n/a	n/a	n/a	1
86.621	0.616654886	WALKER	lure	n/a	n/a	n/a	1
87.237	0.683490911	BUZZARD	lure	n/a	n/a	n/a	1
87.921	0.433160875	DEMOCRACY	lure	n/a	n/a	n/a	1
88.354	0.466659561	DIPPER	lure	n/a	n/a	n/a	1
88.821	0.349992227	BACKGAMMON	lure	n/a	n/a	n/a	1
89.171	0.449997006	BONSAI	lure	n/a	n/a	n/a	1
89.621	0.416724449	JEEP	lure	n/a	n/a	n/a	1
90.037	0.450020762	DEVIATION	lure	n/a	n/a	n/a	1
90.487	0.499903557	BUTLER	lure	n/a	n/a	n/a	1
90.987	0.616655944	BRASS	short	n/a	n/a	n/a	1
91.604	0.516661477	TANGERINE	lure	n/a	n/a	n/a	1
92.121	0.43332294	CUBIST	lure	n/a	n/a	n/a	1
92.554	0.633327981	WEIRDO	lure	n/a	n/a	n/a	1
93.187	0.566658052	POPULISM	lure	n/a	n/a	n/a	1
93.754	0.333737401	PURSUIT	lure	n/a	n/a	n/a	1
94.088	0.416303121	HAZE	lure	n/a	n/a	n/a	1
94.504	0.433273311	WOMENFOLK	lure	n/a	n/a	n/a	1
94.937	0.683322649	LIABILITY	lure	n/a	n/a	n/a	1
95.62	0.716718545	ELF	lure	n/a	n/a	n/a	1
96.337	0.549994539	SALTWATER	lure	n/a	n/a	n/a	1
96.887	0.383267432	CHANCELLOR	lure	n/a	n/a	n/a	1
97.27	0.700039734	GREENHORN	lure	n/a	n/a	n/a	1
97.97	0.666606966	MISCALL	lure	n/a	n/a	n/a	1
98.637	0.583322351	PORTRAIT	lure	n/a	n/a	n/a	1
99.22	2.016642363	SAIL	long	n/a	n/a	n/a	1
101.237	0.466654849	TRANSFER	lure	n/a	n/a	n/a	1
101.704	0.49999546	WATERSPOUT	lure	n/a	n/a	n/a	1
102.204	0.749987815	FORTE	lure	n/a	n/a	n/a	1
102.954	0.7000462	POLITICIAN	lure	n/a	n/a	n/a	1
103.654	0.466604248	CORDIALITY	lure	n/a	n/a	n/a	1
104.12	0.399996118	LOBBYIST	lure	n/a	n/a	n/a	1
104.52	0.516652941	POTBOILER	lure	n/a	n/a	n/a	1
105.037	0.533329905	COUPE	lure	n/a	n/a	n/a	1
105.57	0.616657267	FROGMAN	lure	n/a	n/a	n/a	1
106.187	0.499992848	EQUALITY	lure	n/a	n/a	n/a	1
106.687	0.333324118	VICTORY	lure	n/a	n/a	n/a	1
107.02	0.466664165	FANTASY	lure	n/a	n/a	n/a	1
107.487	0.616660184	BUCKET	short	n/a	n/a	n/a	1
108.104	0.649990051	COWARD	lure	n/a	n/a	n/a	1
108.754	0.366663139	LIMBO	lure	n/a	n/a	n/a	1
109.12	0.699986115	TAILSPIN	lure	n/a	n/a	n/a	1
109.82	0.549992975	BRAINSTORM	lure	n/a	n/a	n/a	1
110.37	0.666753348	ELECTION	lure	n/a	n/a	n/a	1
111.037	0.716558808	HARE	lure	n/a	n/a	n/a	1
111.754	0.516705618	SATIN	lure	n/a	n/a	n/a	1
112.27	0.583275547	COMPUTER	lure	n/a	n/a	n/a	1
112.854	0.566662001	SABBATICAL	lure	n/a	n/a	n/a	1
113.42	0.66665602	RITZ	lure	n/a	n/a	n/a	1
114.087	0.566659739	SALESMAN	lure	n/a	n/a	n/a	1
114.654	0.34999705	GALLUP	lure	n/a	n/a	n/a	1
115.004	0.483326427	KITCHEN	lure	n/a	n/a	n/a	1
115.487	2.066632771	RACKET	long	n/a	n/a	n/a	1
117.553	0.683323302	CHOCOLATE	lure	n/a	n/a	n/a	1
118.237	0.366665604	SWEETIE	lure	n/a	n/a	n/a	1
118.603	0.533319018	FRINGE	lure	n/a	n/a	n/a	1
119.137	0.63332604	ADHESION	lure	n/a	n/a	n/a	1
119.77	0.333328764	DENOTATION	lure	n/a	n/a	n/a	1
120.103	0.566661417	MILLENIUM	lure	n/a	n/a	n/a	1
120.67	0.416665018	SUNLAMP	lure	n/a	n/a	n/a	1
121.087	0.566654604	CONFESSOR	lure	n/a	n/a	n/a	1
121.653	0.633325845	ARSON	lure	n/a	n/a	n/a	1
122.287	0.533323248	OINTMENT	lure	n/a	n/a	n/a	1
122.82	0.666654492	DISSERVICE	lure	n/a	n/a	n/a	1
123.487	0.616661003	MANDOLIN	lure	n/a	n/a	n/a	1
124.103	0.616660167	MATTER	short	n/a	n/a	n/a	1
124.72	0.566659463	ANNOTATION	lure	n/a	n/a	n/a	1
125.287	0.349992787	SHOWPIECE	lure	n/a	n/a	n/a	1
125.637	0.683322255	CEDAR	lure	n/a	n/a	n/a	1
126.32	0.349993578	PHONEBOOTH	lure	n/a	n/a	n/a	1
126.67	0.516660127	MATERNITY	lure	n/a	n/a	n/a	1
127.187	0.549992691	OBSCURITY	lure	n/a	n/a	n/a	1
127.737	0.370420093	STUDENT	lure	n/a	n/a	n/a	1
128.107	0.312954651	POLLUTION	lure	n/a	n/a	n/a	1
128.42	0.366610554	GULLY	lure	n/a	n/a	n/a	1
128.787	0.699984994	SALUTATION	lure	n/a	n/a	n/a	1
129.487	0.449997287	LIGHTHOUSE	lure	n/a	n/a	n/a	1
129.937	0.533327487	DESCENT	lure	n/a	n/a	n/a	1
130.47	0.349998852	CRYBABY	lure	n/a	n/a	n/a	1
130.82	0.383319376	PINKIE	lure	n/a	n/a	n/a	1
131.203	0.366747429	SAUCER	lure	n/a	n/a	n/a	1
131.57	0.58676345	WHACKER	lure	n/a	n/a	n/a	1
132.157	2.046513243	COUNCIL	long	n/a	n/a	n/a	1
134.203	0.5333228	TRIBESMAN	lure	n/a	n/a	n/a	1
134.737	0.483263815	DEFIANCE	lure	n/a	n/a	n/a	1
135.22	0.366663514	DOT	lure	n/a	n/a	n/a	1
135.587	0.599993269	LIPSTICK	lure	n/a	n/a	n/a	1
136.187	0.616713393	INVASION	lure	n/a	n/a	n/a	1
136.803	0.617467522	BEHALF	lure	n/a	n/a	n/a	1
137.421	0.765788922	TOLERANCE	lure	n/a	n/a	n/a	1
138.187	0.73332338	SALESGIRL	lure	n/a	n/a	n/a	1
138.92	0.716716312	QUICKSTEP	lure	n/a	n/a	n/a	1
139.637	0.399928843	HEDONISM	lure	n/a	n/a	n/a	1
140.037	0.533331547	FATALISM	lure	n/a	n/a	n/a	1
140.57	2.016638548	TART	long	n/a	n/a	n/a	1
142.586	0.466708852	MEDAL	lure	n/a	n/a	n/a	1
143.053	0.500003197	HIDEOUT	lure	n/a	n/a	n/a	1
143.553	0.333266807	DISTASTE	lure	n/a	n/a	n/a	1
143.886	0.449993649	LATCH	lure	n/a	n/a	n/a	1
144.336	0.483326482	PARITY	lure	n/a	n/a	n/a	1
144.82	0.71665721	SPOONFUL	lure	n/a	n/a	n/a	1
145.536	0.333327872	KANGAROO	lure	n/a	n/a	n/a	1
145.87	0.749988963	ROSEMARY	lure	n/a	n/a	n/a	1
146.62	0.716655056	ARITHMETIC	lure	n/a	n/a	n/a	1
147.336	0.666715291	ENVELOPE	lure	n/a	n/a	n/a	1
148.003	0.633265822	SHEATH	lure	n/a	n/a	n/a	1
148.636	0.699993466	ROSARY	lure	n/a	n/a	n/a	1
149.336	0.616657367	ASHES	short	n/a	n/a	n/a	1
149.953	0.58332436	PRELUDE	lure	n/a	n/a	n/a	1
150.536	0.516656751	PAYLOAD	lure	n/a	n/a	n/a	1
151.053	0.749989612	ANTENNAE	lure	n/a	n/a	n/a	1
151.803	0.421246054	FOUNDATION	lure	n/a	n/a	n/a	1
152.224	0.478741118	DISABILITY	lure	n/a	n/a	n/a	1
152.703	0.700044496	BACKBONE	lure	n/a	n/a	n/a	1
153.403	0.649938617	LEDGER	lure	n/a	n/a	n/a	1
154.053	0.70005039	HIERARCHY	lure	n/a	n/a	n/a	1
154.753	0.71659411	SUNDIAL	lure	n/a	n/a	n/a	1
155.47	0.533327977	SCORPION	lure	n/a	n/a	n/a	1
156.003	0.383326671	EXPLORER	lure	n/a	n/a	n/a	1
156.386	0.549992822	TAXIDERMY	lure	n/a	n/a	n/a	1
156.936	0.683323576	AISLE	lure	n/a	n/a	n/a	1
157.62	1.016646206	PEACH	fruit	n/a	n/a	2	0
158.636	0.45005771	MYSTICISM	lure	136	2	n/a	0
159.086	0.720217797	SACRAMENT	lure	n/a	n/a	n/a	1
159.807	0.450841371	ETERNITY	lure	n/a	n/a	n/a	1
160.257	0.462729461	STARGAZER	lure	n/a	n/a	n/a	1
160.72	0.417607315	CYNICISM	lure	n/a	n/a	n/a	1
161.138	0.331898133	PILLION	lure	n/a	n/a	n/a	1
161.47	0.666598154	FONT	lure	n/a	n/a	n/a	1
162.136	0.649996067	BLOODHOUND	lure	n/a	n/a	n/a	1
162.786	0.499988369	COPPERHEAD	lure	n/a	n/a	n/a	1
163.286	0.633327006	DROPLET	lure	n/a	n/a	n/a	1
163.919	0.566658085	TOWNSHIP	lure	n/a	n/a	n/a	1
164.486	0.483327285	SHELLFISH	lure	n/a	n/a	n/a	1
164.969	0.766657293	DISCOVERER	lure	n/a	n/a	n/a	1
165.736	0.466659346	HURRICANE	lure	n/a	n/a	n/a	1
166.203	2.01663834	COLUMN	long	n/a	n/a	n/a	1
168.219	0.633319111	STUPIDITY	lure	n/a	n/a	n/a	1
168.853	0.499994841	OYSTER	lure	n/a	n/a	n/a	1
169.353	0.633326209	CONFLICT	lure	n/a	n/a	n/a	1
169.986	0.683321979	REFINEMENT	lure	n/a	n/a	n/a	1
170.669	0.66783173	BRUSHWOOD	lure	n/a	n/a	n/a	1
171.337	0.732147592	SEAWALL	lure	n/a	n/a	n/a	1
172.069	0.41665795	DIVERSION	lure	n/a	n/a	n/a	1
172.486	0.716661124	PROPAGANDA	lure	n/a	n/a	n/a	1
173.203	0.466658536	GUARDHOUSE	lure	n/a	n/a	n/a	1
173.669	0.633325941	REEF	lure	n/a	n/a	n/a	1
174.303	0.733323928	NITWIT	lure	n/a	n/a	n/a	1
175.036	2.016635032	CLUB	long	n/a	n/a	n/a	1
177.053	0.499989976	LEVITY	lure	n/a	n/a	n/a	1
177.553	0.566661123	TELEPATHY	lure	n/a	n/a	n/a	1
178.119	0.733323234	CHEEKBONE	lure	n/a	n/a	n/a	1
178.853	0.799987202	GUITARIST	lure	n/a	n/a	n/a	1
179.653	0.666657855	RAMBLER	lure	n/a	n/a	n/a	1
180.319	0.699991007	THIRST	lure	n/a	n/a	n/a	1
181.019	0.683323162	TRUANCY	lure	n/a	n/a	n/a	1
181.703	0.435580853	SPASM	lure	n/a	n/a	n/a	1
182.138	0.497739287	THEME	lure	n/a	n/a	n/a	1
182.636	0.633324314	SAILOR	lure	n/a	n/a	n/a	1
183.269	1.016652092	APPLE	fruit	719	2	2	1
184.286	0.733323349	WOODSMAN	lure	n/a	n/a	n/a	1
185.019	0.516657487	PONY	lure	n/a	n/a	n/a	1
185.536	0.799988436	MASON	lure	n/a	n/a	n/a	1
186.336	0.699991302	SOMBRERO	lure	n/a	n/a	n/a	1
187.036	0.466660779	HICKORY	lure	n/a	n/a	n/a	1
187.502	0.749987898	VOUCHER	lure	n/a	n/a	n/a	1
188.252	0.583325583	SUITOR	lure	n/a	n/a	n/a	1
188.836	0.449992258	CAVALRYMEN	lure	n/a	n/a	n/a	1
189.286	0.483328014	RESPIRATOR	lure	n/a	n/a	n/a	1
189.769	0.466658975	SALESMEN	lure	n/a	n/a	n/a	1
190.236	0.53332673	RACEWAY	lure	n/a	n/a	n/a	1
190.769	0.549990363	HELM	lure	n/a	n/a	n/a	1
191.319	0.41666256	BOOKSHELF	lure	n/a	n/a	n/a	1
191.736	0.616656249	NOVEL	short	n/a	n/a	n/a	1
192.352	0.633323945	SURVEY	lure	n/a	n/a	n/a	1
192.986	0.699993899	VIOLATION	lure	n/a	n/a	n/a	1
193.686	0.366655763	PIGLET	lure	n/a	n/a	n/a	1
194.052	0.333327725	MASCARA	lure	n/a	n/a	n/a	1
194.386	0.699991691	FLOWERPOT	lure	n/a	n/a	n/a	1
195.086	0.616659645	EQUATION	lure	n/a	n/a	n/a	1
195.702	0.61665438	NECKLACE	lure	n/a	n/a	n/a	1
196.319	0.583330097	MINUTEMAN	lure	n/a	n/a	n/a	1
196.902	0.683320268	CRITTER	lure	n/a	n/a	n/a	1
197.586	0.449995195	GAZER	lure	n/a	n/a	n/a	1
198.036	0.683325872	TRINITY	lure	n/a	n/a	n/a	1
198.719	0.749988996	SALESWOMAN	lure	n/a	n/a	n/a	1
199.469	0.483367756	FRAMEWORK	lure	n/a	n/a	n/a	1
199.952	0.616615323	SPARK	short	n/a	n/a	n/a	1
200.569	0.38332321	CLARINET	lure	n/a	n/a	n/a	1
200.952	0.416716293	HANDIWORK	lure	n/a	n/a	n/a	1
201.369	0.43327632	HYENA	lure	n/a	n/a	n/a	1
201.802	0.650058613	PROFANITY	lure	n/a	n/a	n/a	1
202.452	0.51659104	FLUORIDE	lure	n/a	n/a	n/a	1
202.969	0.633324319	STAIRWAY	lure	n/a	n/a	n/a	1
203.602	0.466659703	PIZZERIA	lure	n/a	n/a	n/a	1
204.069	0.41670353	APPAREL	lure	n/a	n/a	n/a	1
204.486	0.752250672	PALEFACE	lure	n/a	n/a	n/a	1
205.238	0.731068435	CANDY	lure	n/a	n/a	n/a	1
205.969	0.383278948	NUTSHELL	lure	n/a	n/a	n/a	1
206.352	0.499990676	RESILIENCE	lure	n/a	n/a	n/a	1
206.852	0.749989805	PERTINENCE	lure	n/a	n/a	n/a	1
207.602	0.716658212	ACETONE	lure	n/a	n/a	n/a	1
208.319	0.666653749	PIANO	short	n/a	n/a	n/a	1
208.986	0.666714205	CLUMP	lure	n/a	n/a	n/a	1
209.652	0.599934819	STAMINA	lure	n/a	n/a	n/a	1
210.252	0.33332823	TRANCE	lure	n/a	n/a	n/a	1
210.585	0.466656536	DENTIST	lure	n/a	n/a	n/a	1
211.052	0.500036891	PASSENGER	lure	n/a	n/a	n/a	1
211.552	0.666680063	PORTAL	lure	n/a	n/a	n/a	1
212.219	0.335811631	REVENUE	lure	n/a	n/a	n/a	1
212.555	0.314117038	PATRIARCHY	lure	n/a	n/a	n/a	1
212.869	0.316733394	POPULARITY	lure	n/a	n/a	n/a	1
213.186	0.666584369	MAINSTAY	lure	n/a	n/a	n/a	1
213.852	0.466661861	CLERGYMAN	lure	n/a	n/a	n/a	1
214.319	0.416659066	TELETYPE	lure	n/a	n/a	n/a	1
214.735	0.599992776	CHORE	lure	n/a	n/a	n/a	1
215.335	0.666656717	SHRINE	lure	n/a	n/a	n/a	1
216.002	0.533326181	RAMPAGE	lure	n/a	n/a	n/a	1
216.535	2.016634192	SANDPAPER	long	n/a	n/a	n/a	1
218.552	0.33338001	GREENHOUSE	lure	n/a	n/a	n/a	1
218.885	0.74999015	COCKTAIL	lure	n/a	n/a	n/a	1
219.635	0.600025988	INCREASE	lure	n/a	n/a	n/a	1
220.235	0.69996961	CONTRACT	lure	n/a	n/a	n/a	1
220.935	0.350003905	THEORY	lure	n/a	n/a	n/a	1
221.285	0.399960655	PORTRAYAL	lure	n/a	n/a	n/a	1
221.685	0.44995726	SILVERFISH	lure	n/a	n/a	n/a	1
222.135	0.599989009	SAUSAGE	lure	n/a	n/a	n/a	1
222.735	0.633324557	SONATA	lure	n/a	n/a	n/a	1
223.369	0.399995392	ORGANISM	lure	n/a	n/a	n/a	1
223.769	0.733320216	STRENGTH	lure	n/a	n/a	n/a	1
224.502	0.633324237	STARFISH	lure	n/a	n/a	n/a	1
225.135	0.600060195	CLOVE	lure	n/a	n/a	n/a	1
225.735	0.533256724	CALCULATOR	lure	n/a	n/a	n/a	1
226.269	0.333325955	COOLANT	lure	n/a	n/a	n/a	1
226.602	n/a	SHOWPLACE	lure	n/a	n/a	n/a	1
238.023	0.545672287	NUTMEG	lure	n/a	n/a	n/a	1
238.568	0.583330922	SEABOARD	lure	n/a	n/a	n/a	1
239.152	0.31666151	WOE	lure	n/a	n/a	n/a	1
239.468	0.399994945	NORM	lure	n/a	n/a	n/a	1
239.868	0.33332711	QUICKIE	lure	n/a	n/a	n/a	1
240.202	0.683324481	OVERHANG	lure	n/a	n/a	n/a	1
240.885	0.383327428	ANTICLIMAX	lure	n/a	n/a	n/a	1
241.268	0.316663952	HEATHER	lure	n/a	n/a	n/a	1
241.585	2.016637957	RACKET	long	n/a	n/a	n/a	1
243.602	0.766653091	SUPERVISOR	lure	n/a	n/a	n/a	1
244.368	0.383328357	OVERTIME	lure	n/a	n/a	n/a	1
244.752	0.366660084	BEVERAGE	lure	n/a	n/a	n/a	1
245.118	0.316663068	KINSMAN	lure	n/a	n/a	n/a	1
245.435	0.433327592	DISRUPTION	lure	n/a	n/a	n/a	1
245.868	0.733322006	FANATICISM	lure	n/a	n/a	n/a	1
246.602	0.366661343	SUPPRESSOR	lure	n/a	n/a	n/a	1
246.968	0.499995475	NEWSPRINT	lure	n/a	n/a	n/a	1
247.468	0.616656695	MICRON	lure	n/a	n/a	n/a	1
248.085	0.616703612	PEDIMENT	lure	n/a	n/a	n/a	1
248.702	0.79994014	DEMOTION	lure	n/a	n/a	n/a	1
249.502	0.31666455	DISSUASION	lure	n/a	n/a	n/a	1
249.818	1.016653297	LIME	fruit	n/a	n/a	2	0
250.835	0.449991699	HATBAND	lure	n/a	n/a	n/a	1
251.285	0.666656885	STORAGE	lure	n/a	n/a	n/a	1
251.952	0.399993801	BACHELOR	lure	n/a	n/a	n/a	1
252.352	0.399993502	REACTION	lure	n/a	n/a	n/a	1
252.752	0.650049286	MATURATION	lure	n/a	n/a	n/a	1
253.402	0.337538191	ROTATION	lure	n/a	n/a	n/a	1
253.739	0.529058551	MEDALLIST	lure	n/a	n/a	n/a	1
254.268	0.483383902	POLYMER	lure	n/a	n/a	n/a	1
254.752	0.599933392	HICK	lure	n/a	n/a	n/a	1
255.352	0.616716946	SEAWATER	lure	n/a	n/a	n/a	1
255.968	0.683264724	PUEBLO	lure	n/a	n/a	n/a	1
256.651	0.504539766	IMPUTATION	lure	n/a	n/a	n/a	1
257.156	0.495447013	SLOTH	lure	n/a	n/a	n/a	1
257.651	0.399993362	PERVERSITY	lure	n/a	n/a	n/a	1
258.051	1.016653551	ORANGE	fruit	977	2	2	1
259.068	0.566657391	MODULATION	lure	n/a	n/a	n/a	1
259.635	0.550030007	LOT	lure	n/a	n/a	n/a	1
260.185	0.516675337	UNIVERSE	lure	n/a	n/a	n/a	1
260.701	0.683268764	SNAPDRAGON	lure	n/a	n/a	n/a	1
261.385	0.683323456	ANNOUNCER	lure	n/a	n/a	n/a	1
262.068	0.649988444	WORKPIECE	lure	n/a	n/a	n/a	1
262.718	0.699993866	WEREWOLF	lure	n/a	n/a	n/a	1
263.418	0.433325116	INFORMANT	lure	n/a	n/a	n/a	1
263.851	0.733321595	EDDY	lure	n/a	n/a	n/a	1
264.585	0.650028193	DROPOUT	lure	n/a	n/a	n/a	1
265.235	0.43328582	YACHT	lure	n/a	n/a	n/a	1
265.668	0.76666205	BALLET	lure	n/a	n/a	n/a	1
266.435	2.049968287	SANDPAPER	long	n/a	n/a	n/a	1
268.485	0.616718094	WINDER	lure	n/a	n/a	n/a	1
269.101	0.64993012	CREATOR	lure	n/a	n/a	n/a	1
269.751	0.316663808	MASTERSHIP	lure	n/a	n/a	n/a	1
270.068	0.649990356	PLANNER	lure	n/a	n/a	n/a	1
270.718	0.499992272	PROCURER	lure	n/a	n/a	n/a	1
271.218	0.5166606	TESTAMENT	lure	n/a	n/a	n/a	1
271.735	0.49999265	ENCHANTER	lure	n/a	n/a	n/a	1
272.235	0.699991814	ELECTRODE	lure	n/a	n/a	n/a	1
272.935	0.566657478	FOOTWORK	lure	n/a	n/a	n/a	1
273.501	0.583383782	SERENITY	lure	n/a	n/a	n/a	1
274.085	0.716594953	RECOMPENSE	lure	n/a	n/a	n/a	1
274.801	0.616658761	NOVEL	short	n/a	n/a	n/a	1
275.418	0.437773808	POSTERITY	lure	n/a	n/a	n/a	1
275.856	0.462213294	HIPSTER	lure	n/a	n/a	n/a	1
276.318	0.633324334	WORKSHOP	lure	n/a	n/a	n/a	1
276.951	0.433328123	OCCUPANCY	lure	n/a	n/a	n/a	1
277.385	0.383325922	DOORSTOP	lure	n/a	n/a	n/a	1
277.768	0.533327977	SEALER	lure	n/a	n/a	n/a	1
278.301	0.733321062	HANGUP	lure	n/a	n/a	n/a	1
279.035	0.716719893	PROVINCE	lure	n/a	n/a	n/a	1
279.751	0.566591306	TELESCOPE	lure	n/a	n/a	n/a	1
280.318	0.383330801	RATION	lure	n/a	n/a	n/a	1
280.701	0.433324808	SUSPECT	lure	n/a	n/a	n/a	1
281.134	0.583327632	LOGARITHM	lure	n/a	n/a	n/a	1
281.718	0.733320504	ESPIONAGE	lure	n/a	n/a	n/a	1
282.451	0.599993947	BULB	lure	n/a	n/a	n/a	1
283.051	2.016639837	COLUMN	long	n/a	n/a	n/a	1
285.068	0.549989063	IMPROVISER	lure	n/a	n/a	n/a	1
285.618	0.633322896	SESSION	lure	n/a	n/a	n/a	1
286.251	0.683402104	RAWHIDE	lure	n/a	n/a	n/a	1
286.934	0.749980341	COPIER	lure	n/a	n/a	n/a	1
287.684	0.383259583	DERIVATION	lure	n/a	n/a	n/a	1
288.068	0.533325304	OILSKIN	lure	n/a	n/a	n/a	1
288.601	0.316661622	BLOWBACK	lure	n/a	n/a	n/a	1
288.918	0.416723747	MUSKET	lure	n/a	n/a	n/a	1
289.334	0.666592221	BYSTANDER	lure	n/a	n/a	n/a	1
290.001	0.749991449	DIESEL	lure	n/a	n/a	n/a	1
290.751	0.533407214	TRENCH	lure	n/a	n/a	n/a	1
291.284	1.016572483	MULBERRY	fruit	744	2	2	1
292.301	0.63332194	BOMBSIGHT	lure	n/a	n/a	n/a	1
292.934	0.516657753	HOMETOWN	lure	n/a	n/a	n/a	1
293.451	0.616659776	TALISMAN	lure	n/a	n/a	n/a	1
294.068	0.383372966	RIVERBANK	lure	n/a	n/a	n/a	1
294.451	0.733279507	CLOSURE	lure	n/a	n/a	n/a	1
295.184	0.499989879	SIMILARITY	lure	n/a	n/a	n/a	1
295.684	0.666656763	EXCITEMENT	lure	n/a	n/a	n/a	1
296.351	0.683322603	DEVIANCY	lure	n/a	n/a	n/a	1
297.034	0.68332644	GIRL	lure	n/a	n/a	n/a	1
297.718	0.45008019	CONVENT	lure	n/a	n/a	n/a	1
298.168	0.516570279	SNAPPER	lure	n/a	n/a	n/a	1
298.684	0.483327889	MAESTRO	lure	n/a	n/a	n/a	1
299.168	0.549992018	PREACHER	lure	n/a	n/a	n/a	1
299.718	0.616657647	BELT	short	n/a	n/a	n/a	1
300.334	0.533325793	EUPHEMISM	lure	n/a	n/a	n/a	1
300.868	0.368462837	CINEMA	lure	n/a	n/a	n/a	1
301.236	0.414861035	BANDWAGON	lure	n/a	n/a	n/a	1
301.651	0.383325633	RETIREMENT	lure	n/a	n/a	n/a	1
302.034	0.616658033	TOUCHSTONE	lure	n/a	n/a	n/a	1
302.651	0.416661788	PHONOLOGY	lure	n/a	n/a	n/a	1
303.067	0.633380512	COTTAGE	lure	n/a	n/a	n/a	1
303.701	0.599970989	FIREWATER	lure	n/a	n/a	n/a	1
304.301	0.633290206	SCAVENGER	lure	n/a	n/a	n/a	1
304.934	0.73332042	OUTCAST	lure	n/a	n/a	n/a	1
305.667	0.449991721	PARASOL	lure	n/a	n/a	n/a	1
306.117	0.449996664	LIBERATOR	lure	n/a	n/a	n/a	1
306.567	0.499988357	DEMANDER	lure	n/a	n/a	n/a	1
307.067	0.333377983	LAMB	lure	n/a	n/a	n/a	1
307.401	0.633276895	GEOGRAPHY	lure	n/a	n/a	n/a	1
308.034	0.616660134	PIANO	short	n/a	n/a	n/a	1
308.651	0.683321631	ACTIVATION	lure	n/a	n/a	n/a	1
309.334	0.416661036	CHARACTER	lure	n/a	n/a	n/a	1
309.751	0.666657602	OVERLAY	lure	n/a	n/a	n/a	1
310.417	0.633383196	FREEDMAN	lure	n/a	n/a	n/a	1
311.051	0.749928622	VALIDITY	lure	n/a	n/a	n/a	1
311.801	0.749986218	MARIONETTE	lure	n/a	n/a	n/a	1
312.551	0.349995564	UPROAR	lure	n/a	n/a	n/a	1
312.901	0.683326263	FALSEHOOD	lure	n/a	n/a	n/a	1
313.584	0.702895093	WIG	lure	n/a	n/a	n/a	1
314.287	0.647084022	PRECEPT	lure	n/a	n/a	n/a	1
314.934	0.700037658	JOSH	lure	n/a	n/a	n/a	1
315.634	0.449949892	SEDITION	lure	n/a	n/a	n/a	1
316.084	2.016637235	FOAM	long	n/a	n/a	n/a	1
318.101	0.466657348	MONGREL	lure	n/a	n/a	n/a	1
318.567	0.349994171	MIGRATION	lure	n/a	n/a	n/a	1
318.917	0.416723421	SEAPORT	lure	n/a	n/a	n/a	1
319.334	0.399933209	CREWMEN	lure	n/a	n/a	n/a	1
319.734	0.483327698	ABDOMEN	lure	n/a	n/a	n/a	1
320.217	0.499987445	TELEVISION	lure	n/a	n/a	n/a	1
320.717	0.349996892	DOMINION	lure	n/a	n/a	n/a	1
321.067	0.516724166	INDIGENCE	lure	n/a	n/a	n/a	1
321.584	0.466598588	HARVESTER	lure	n/a	n/a	n/a	1
322.051	0.749989858	COLESLAW	lure	n/a	n/a	n/a	1
322.801	0.500027491	NOTHING	lure	n/a	n/a	n/a	1
323.301	0.399959672	ADJUSTMENT	lure	n/a	n/a	n/a	1
323.701	0.683324293	EXPO	lure	n/a	n/a	n/a	1
324.384	1.016645632	MELON	fruit	685	2	2	1
325.401	0.616697809	COURTHOUSE	lure	n/a	n/a	n/a	1
326.017	0.316620608	COMMOTION	lure	n/a	n/a	n/a	1
326.334	0.733330138	SPILLWAY	lure	n/a	n/a	n/a	1
327.067	0.699987074	BARRIER	lure	n/a	n/a	n/a	1
327.767	0.366660957	GURU	lure	n/a	n/a	n/a	1
328.134	0.533431389	BOSOM	lure	n/a	n/a	n/a	1
328.667	0.533219338	COLLOQUIUM	lure	n/a	n/a	n/a	1
329.2	0.599994664	MUSTACHE	lure	n/a	n/a	n/a	1
329.8	0.549984397	ELONGATION	lure	n/a	n/a	n/a	1
330.35	0.500044732	YEAST	lure	n/a	n/a	n/a	1
330.85	0.750049384	MINELAYER	lure	n/a	n/a	n/a	1
331.601	0.349888087	BLOWFISH	lure	n/a	n/a	n/a	1
331.95	0.316661923	MORSEL	lure	n/a	n/a	n/a	1
332.267	0.650052103	SPARK	short	n/a	n/a	n/a	1
332.917	0.399997262	RISER	lure	n/a	n/a	n/a	1
333.317	0.316702717	NEWSREADER	lure	n/a	n/a	n/a	1
333.634	0.416603915	INCUBATION	lure	n/a	n/a	n/a	1
334.05	0.63327741	IDEOLOGIST	lure	n/a	n/a	n/a	1
334.684	0.683369175	DECOR	lure	n/a	n/a	n/a	1
335.367	0.566674092	PRISM	lure	n/a	n/a	n/a	1
335.934	0.416653266	OBLIVION	lure	n/a	n/a	n/a	1
336.35	0.383386934	LEAKAGE	lure	n/a	n/a	n/a	1
336.734	0.499878503	LEPRECHAUN	lure	n/a	n/a	n/a	1
337.234	0.649989646	JUNIPER	lure	n/a	n/a	n/a	1
337.884	0.333332637	REDEMPTION	lure	n/a	n/a	n/a	1
338.217	0.699987613	SECULARISM	lure	n/a	n/a	n/a	1
338.917	0.616719874	CHARITY	lure	n/a	n/a	n/a	1
339.534	0.466599132	DRAGONFLY	lure	n/a	n/a	n/a	1
340	0.60002585	LONGHORN	lure	n/a	n/a	n/a	1
340.6	1.016614387	APPLE	fruit	n/a	n/a	2	0
341.617	0.516662086	FARMHAND	lure	140	2	n/a	0
342.134	0.699990768	INSURANCE	lure	n/a	n/a	n/a	1
342.834	0.716654485	PATTY	lure	n/a	n/a	n/a	1
343.55	0.400062728	EARACHE	lure	n/a	n/a	n/a	1
343.95	0.43331788	GULF	lure	n/a	n/a	n/a	1
344.384	0.433324715	OMISSION	lure	n/a	n/a	n/a	1
344.817	0.369488574	CENTURY	lure	n/a	n/a	n/a	1
345.186	0.530487123	FOREGROUND	lure	n/a	n/a	n/a	1
345.717	0.649946568	PERCEPTION	lure	n/a	n/a	n/a	1
346.367	0.600050789	TIDEWAY	lure	n/a	n/a	n/a	1
346.967	0.399933943	BULKHEAD	lure	n/a	n/a	n/a	1
347.367	0.383326929	SECRETARY	lure	n/a	n/a	n/a	1
347.75	0.399991785	LETTERMAN	lure	n/a	n/a	n/a	1
348.15	0.46666122	DEVOTION	lure	n/a	n/a	n/a	1
348.617	0.416662655	ICEMAN	lure	n/a	n/a	n/a	1
349.034	0.616659039	MATTER	short	n/a	n/a	n/a	1
349.65	0.53332412	WREATH	lure	n/a	n/a	n/a	1
350.183	0.633325227	ARMORY	lure	n/a	n/a	n/a	1
350.817	0.666655884	POSSESSION	lure	n/a	n/a	n/a	1
351.483	0.633324928	ELECTOR	lure	n/a	n/a	n/a	1
352.117	0.733368783	HAIRPIECE	lure	n/a	n/a	n/a	1
352.85	0.49994751	HEXAGON	lure	n/a	n/a	n/a	1
353.35	0.316736442	ANTITOXIN	lure	n/a	n/a	n/a	1
353.667	0.466582027	TOPAZ	lure	n/a	n/a	n/a	1
354.133	0.749993066	SCHOOLBOY	lure	n/a	n/a	n/a	1
354.883	0.566660042	TOAD	lure	n/a	n/a	n/a	1
355.45	0.533320202	MENTHOL	lure	n/a	n/a	n/a	1
355.983	0.366662978	SITUATION	lure	n/a	n/a	n/a	1
356.35	0.75008093	REVERSION	lure	n/a	n/a	n/a	1
357.1	0.316666226	MONOTONE	lure	n/a	n/a	n/a	1
357.417	2.016546165	RIDGE	long	n/a	n/a	n/a	1
359.433	0.649991382	HIPPO	lure	n/a	n/a	n/a	1
360.083	0.383322289	HESITANCY	lure	n/a	n/a	n/a	1
360.467	0.683322305	FENDER	lure	n/a	n/a	n/a	1
361.15	0.733370428	CORONET	lure	n/a	n/a	n/a	1
361.883	0.571128737	SABOTAGE	lure	n/a	n/a	n/a	1
362.454	0.481565893	NETTLE	lure	n/a	n/a	n/a	1
362.936	0.730626116	ASTRONAUT	lure	n/a	n/a	n/a	1
363.667	0.53326179	BOWSTRING	lure	n/a	n/a	n/a	1
364.2	0.566662621	WHIM	lure	n/a	n/a	n/a	1
364.767	0.683324629	NECTAR	lure	n/a	n/a	n/a	1
365.45	0.683382581	PEDICURE	lure	n/a	n/a	n/a	1
366.133	2.01658124	PYRAMID	long	n/a	n/a	n/a	1
368.15	0.699987275	COMMUNION	lure	n/a	n/a	n/a	1
368.85	0.483320551	SALON	lure	n/a	n/a	n/a	1
369.333	0.550043491	PEDIGREE	lure	n/a	n/a	n/a	1
369.883	0.450005461	EASTERNER	lure	n/a	n/a	n/a	1
370.333	0.616659186	BLIZZARD	lure	n/a	n/a	n/a	1
370.95	0.753426049	ANALYZER	lure	n/a	n/a	n/a	1
371.703	0.413164649	INEQUITY	lure	n/a	n/a	n/a	1
372.117	0.399994209	KNOWLEDGE	lure	n/a	n/a	n/a	1
372.516	0.316737835	DISCOVERY	lure	n/a	n/a	n/a	1
372.833	0.549960622	COOKIE	lure	n/a	n/a	n/a	1
373.383	0.666658546	CAUSEWAY	lure	n/a	n/a	n/a	1
374.05	0.733325623	OCCURRENCE	lure	n/a	n/a	n/a	1
374.783	0.616608785	BRASS	short	n/a	n/a	n/a	1
375.4	0.383391323	SANDBOX	lure	n/a	n/a	n/a	1
375.783	0.683259515	CONSULTANT	lure	n/a	n/a	n/a	1
376.466	0.483326764	GLADE	lure	n/a	n/a	n/a	1
376.95	0.533325354	SLIPCOVER	lure	n/a	n/a	n/a	1
377.483	0.616658958	WINDBREAK	lure	n/a	n/a	n/a	1
378.1	0.516654943	JOYSTICK	lure	n/a	n/a	n/a	1
378.616	0.683326877	MACHINERY	lure	n/a	n/a	n/a	1
379.3	0.566655416	FARMSTEAD	lure	n/a	n/a	n/a	1
379.866	0.749992918	KITE	lure	n/a	n/a	n/a	1
380.616	0.583324588	SULFUR	lure	n/a	n/a	n/a	1
381.2	0.383323752	OUTFIELD	lure	n/a	n/a	n/a	1
381.583	0.404449943	ROCKER	lure	n/a	n/a	n/a	1
381.987	0.414561261	PETROLEUM	lure	n/a	n/a	n/a	1
382.402	0.583567613	HALFTONE	lure	n/a	n/a	n/a	1
382.986	1.014057814	ORANGE	fruit	643	2	2	1
384	0.683324165	SHANTYTOWN	lure	n/a	n/a	n/a	1
384.683	0.633322803	CONTROLLER	lure	n/a	n/a	n/a	1
385.316	0.516659419	CHESSBOARD	lure	n/a	n/a	n/a	1
385.833	0.749989083	HYPOCRITE	lure	n/a	n/a	n/a	1
386.583	0.653561553	NIGHTHAWK	lure	n/a	n/a	n/a	1
387.237	0.513087178	MOBSTER	lure	n/a	n/a	n/a	1
387.75	0.599992052	BROADCLOTH	lure	n/a	n/a	n/a	1
388.35	0.616658537	WOAD	lure	n/a	n/a	n/a	1
388.966	0.416660209	DIVINATION	lure	n/a	n/a	n/a	1
389.383	0.333328142	UNIFORMITY	lure	n/a	n/a	n/a	1
389.716	0.399995688	DUDE	lure	n/a	n/a	n/a	1
390.116	0.383323727	GRID	lure	n/a	n/a	n/a	1
390.5	0.666660833	LAYOUT	lure	n/a	n/a	n/a	1
391.166	0.484987907	INSTRUMENT	lure	n/a	n/a	n/a	1
391.651	2.014972415	CLUB	long	n/a	n/a	n/a	1
393.666	0.699993473	SUBTYPE	lure	n/a	n/a	n/a	1
394.366	0.699989117	OUTRIGGER	lure	n/a	n/a	n/a	1
395.066	0.333325682	FAREWELL	lure	n/a	n/a	n/a	1
395.399	0.733326718	DEFAMATION	lure	n/a	n/a	n/a	1
396.133	0.433325794	GUNSMITH	lure	n/a	n/a	n/a	1
396.566	0.433326605	GODSPEED	lure	n/a	n/a	n/a	1
396.999	0.616657873	SUBURB	lure	n/a	n/a	n/a	1
397.616	0.499995708	ACCEPTANCE	lure	n/a	n/a	n/a	1
398.116	0.316657179	LIEUTEn/aT	lure	n/a	n/a	n/a	1
398.433	0.483329773	POVERTY	lure	n/a	n/a	n/a	1
398.916	0.383326081	VIOLA	lure	n/a	n/a	n/a	1
399.299	0.683324857	CAPITALISM	lure	n/a	n/a	n/a	1
399.983	2.016637616	COUNCIL	long	n/a	n/a	n/a	1
401.999	0.466664571	CLIENTELE	lure	n/a	n/a	n/a	1
402.466	0.385754162	SCENARIO	lure	n/a	n/a	n/a	1
402.852	0.599567696	FIGMENT	lure	n/a	n/a	n/a	1
403.451	0.731315612	MUSTANG	lure	n/a	n/a	n/a	1
404.183	0.583327475	HINDSIGHT	lure	n/a	n/a	n/a	1
404.766	0.433323199	CRITERIA	lure	n/a	n/a	n/a	1
405.199	0.41666204	BACKDROP	lure	n/a	n/a	n/a	1
405.616	0.316662785	BREWERY	lure	n/a	n/a	n/a	1
405.933	0.516658219	ECOLOGY	lure	n/a	n/a	n/a	1
406.449	0.383325332	MICROWAVE	lure	n/a	n/a	n/a	1
406.833	0.516663217	MINSTREL	lure	n/a	n/a	n/a	1
407.349	0.69998845	ASSISTANT	lure	n/a	n/a	n/a	1
408.049	0.733324146	APPARENCY	lure	n/a	n/a	n/a	1
408.783	0.616656107	CITY	short	n/a	n/a	n/a	1
409.399	0.666657955	VOLT	lure	n/a	n/a	n/a	1
410.066	0.449994268	DISSECTION	lure	n/a	n/a	n/a	1
410.516	0.583323533	MIDPOINT	lure	n/a	n/a	n/a	1
411.099	0.48333129	ROTUNDA	lure	n/a	n/a	n/a	1
411.583	0.566655295	CRACKER	lure	n/a	n/a	n/a	1
412.149	0.483323643	RECITATION	lure	n/a	n/a	n/a	1
412.633	0.733325906	REVIVAL	lure	n/a	n/a	n/a	1
413.366	0.418842991	LITERATURE	lure	n/a	n/a	n/a	1
413.785	0.534625983	INCREMENT	lure	n/a	n/a	n/a	1
414.319	0.746501975	DECEIT	lure	n/a	n/a	n/a	1
415.066	0.716659054	BUNKHOUSE	lure	n/a	n/a	n/a	1
415.783	0.599992869	REALTY	lure	n/a	n/a	n/a	1
416.383	0.633322366	TEAMMATE	lure	n/a	n/a	n/a	1
417.016	0.616658533	BUCKET	short	n/a	n/a	n/a	1
417.633	0.499993442	SAFARI	lure	n/a	n/a	n/a	1
418.133	0.599990686	PIPSQUEAK	lure	n/a	n/a	n/a	1
418.732	0.533327108	MOISTURE	lure	n/a	n/a	n/a	1
419.266	0.716654555	BANDAGE	lure	n/a	n/a	n/a	1
419.982	0.749988839	CUPID	lure	n/a	n/a	n/a	1
420.732	0.466660863	INCAPACITY	lure	n/a	n/a	n/a	1
421.199	0.449992634	STOREHOUSE	lure	n/a	n/a	n/a	1
421.649	0.483373748	SHRINKAGE	lure	n/a	n/a	n/a	1
422.132	0.31670361	TRUCKER	lure	n/a	n/a	n/a	1
422.449	0.68323629	ATHEISM	lure	n/a	n/a	n/a	1
423.132	0.650043051	FIXTURE	lure	n/a	n/a	n/a	1
423.782	0.535415255	DECANTER	lure	n/a	n/a	n/a	1
424.318	0.316556888	SWATCH	lure	n/a	n/a	n/a	1
424.634	2.015603076	SAIL	long	n/a	n/a	n/a	1
426.65	0.485560344	RETENTION	lure	n/a	n/a	n/a	1
427.136	0.496751891	CHICKENPOX	lure	n/a	n/a	n/a	1
427.632	0.786462657	HERRING	lure	n/a	n/a	n/a	1
428.419	0.480192006	DISPERSAL	lure	n/a	n/a	n/a	1
428.899	0.383322119	RUG	lure	n/a	n/a	n/a	1
429.282	0.416664103	BLACKBIRD	lure	n/a	n/a	n/a	1
429.699	0.366712508	PASSAGEWAY	lure	n/a	n/a	n/a	1
430.066	0.749936359	SKULL	lure	n/a	n/a	n/a	1
430.816	0.749993745	PRANK	lure	n/a	n/a	n/a	1
431.566	0.349990663	REMINDER	lure	n/a	n/a	n/a	1
431.916	0.349996464	BONFIRE	lure	n/a	n/a	n/a	1
432.266	0.499990901	PRONOUN	lure	n/a	n/a	n/a	1
432.766	2.066634563	TART	long	n/a	n/a	n/a	1
434.832	0.466667819	REGENT	lure	n/a	n/a	n/a	1
435.299	0.500043248	BOOKCLUB	lure	n/a	n/a	n/a	1
435.799	0.416606978	UPTAKE	lure	n/a	n/a	n/a	1
436.216	0.749992325	MALT	lure	n/a	n/a	n/a	1
436.966	0.34998908	SOMERSET	lure	n/a	n/a	n/a	1
437.316	0.449991716	ASCENSION	lure	n/a	n/a	n/a	1
437.766	0.650041384	STEAK	lure	n/a	n/a	n/a	1
438.416	0.384522839	STRATEGY	lure	n/a	n/a	n/a	1
438.8	0.482085931	TOMAHAWK	lure	n/a	n/a	n/a	1
439.282	0.566656915	PANTHER	lure	n/a	n/a	n/a	1
439.849	0.566660048	ANATOMY	lure	n/a	n/a	n/a	1
440.416	0.649992974	VIOLENCE	lure	n/a	n/a	n/a	1
441.066	0.616655573	ASHES	short	n/a	n/a	n/a	1
441.682	0.633325068	THEATER	lure	n/a	n/a	n/a	1
442.315	0.616654772	EXTRACT	lure	n/a	n/a	n/a	1
442.932	0.516659937	GRANDMA	lure	n/a	n/a	n/a	1
443.449	0.616655245	TIMBER	lure	n/a	n/a	n/a	1
444.065	0.34999853	BIGAMIST	lure	n/a	n/a	n/a	1
444.415	0.599991986	RACIALISM	lure	n/a	n/a	n/a	1
445.015	0.733320954	WORKHORSE	lure	n/a	n/a	n/a	1
445.749	0.533323641	SELLER	lure	n/a	n/a	n/a	1
446.282	0.699989875	ANTELOPE	lure	n/a	n/a	n/a	1
446.982	0.516661918	BALLAD	lure	n/a	n/a	n/a	1
447.499	0.699986678	ICICLE	lure	n/a	n/a	n/a	1
448.199	0.366659718	VENISON	lure	n/a	n/a	n/a	1
448.565	0.45000266	TWINE	lure	n/a	n/a	n/a	1
449.015	0.383322007	GREEn/aOOM	lure	n/a	n/a	n/a	1
449.399	0.616656656	CARAVAN	short	n/a	n/a	n/a	1
450.015	0.599996183	GASMASK	lure	n/a	n/a	n/a	1
450.615	0.483327032	COLLAGEN	lure	n/a	n/a	n/a	1
451.099	0.449990929	CONTENT	lure	n/a	n/a	n/a	1
451.549	0.333331446	GINSENG	lure	n/a	n/a	n/a	1
451.882	0.44999299	PARAGON	lure	n/a	n/a	n/a	1
452.332	0.366657513	MEDITATION	lure	n/a	n/a	n/a	1
452.699	0.402489872	CELLOPHANE	lure	n/a	n/a	n/a	1
453.101	0.682568474	MORTUARY	lure	n/a	n/a	n/a	1
453.784	0.398562314	NEGOTIATOR	lure	n/a	n/a	n/a	1
454.182	0.383079689	CIRCUITRY	lure	n/a	n/a	n/a	1
454.565	0.683309666	MUSK	lure	n/a	n/a	n/a	1
455.249	0.666611807	DICTATOR	lure	n/a	n/a	n/a	1
455.915	0.649988889	MOLE	lure	n/a	n/a	n/a	1
456.565	0.704345105	WRATH	lure	n/a	n/a	n/a	1
457.27	0.462304696	COMA	lure	n/a	n/a	n/a	1
457.732	0.566662494	SEAWAY	lure	n/a	n/a	n/a	1
458.299	0.649989627	BOXCAR	lure	n/a	n/a	n/a	1
458.949	0.70002327	EMPIRE	lure	n/a	n/a	n/a	1
459.649	0.716687009	RETAILER	lure	n/a	n/a	n/a	1
460.365	0.366666145	EULOGY	lure	n/a	n/a	n/a	1
460.732	0.466589591	PIZZA	lure	n/a	n/a	n/a	1
461.199	0.516658279	UNDERLING	lure	n/a	n/a	n/a	1
461.715	0.699999498	CHIVALRY	lure	n/a	n/a	n/a	1
462.415	0.75002607	SPECULATOR	lure	n/a	n/a	n/a	1
463.165	0.383284405	CASKET	lure	n/a	n/a	n/a	1
463.549	0.416660545	TANNER	lure	n/a	n/a	n/a	1
463.965	0.383324252	REGISTRY	lure	n/a	n/a	n/a	1
464.349	0.433388641	DRAWSTRING	lure	n/a	n/a	n/a	1
464.782	n/a	DARKROOM	lure	n/a	n/a	n/a	1