onset	duration	stim	cond	RT	resp	cresp	acc
4.048	0.747998365	SHIPPER	lure	n/a	n/a	n/a	1
4.796	0.483370148	GUITAR	lure	n/a	n/a	n/a	1
5.28	0.683288195	SCHOOLMATE	lure	n/a	n/a	n/a	1
5.963	0.349995458	POACHER	lure	n/a	n/a	n/a	1
6.313	0.333326923	HANDSHAKE	lure	n/a	n/a	n/a	1
6.646	0.766655526	MUMMY	lure	n/a	n/a	n/a	1
7.413	0.649990053	RIFT	lure	n/a	n/a	n/a	1
8.063	2.016639416	RIDGE	long	n/a	n/a	n/a	1
10.079	0.716648955	GESTATION	lure	n/a	n/a	n/a	1
10.796	0.783323442	FOOTNOTE	lure	n/a	n/a	n/a	1
11.579	0.650039637	EQUATOR	lure	n/a	n/a	n/a	1
12.229	0.616656614	BATCH	lure	n/a	n/a	n/a	1
12.846	0.616650123	COUNSELLOR	lure	n/a	n/a	n/a	1
13.463	0.466625445	CRACKPOT	lure	n/a	n/a	n/a	1
13.929	0.636529492	HELICOPTER	lure	n/a	n/a	n/a	1
14.566	0.714575716	HEIR	lure	n/a	n/a	n/a	1
15.28	0.332199424	BUCKSKIN	lure	n/a	n/a	n/a	1
15.613	0.366664161	SUMMERTIME	lure	n/a	n/a	n/a	1
15.979	0.616658881	CITY	short	n/a	n/a	n/a	1
16.596	0.566657995	GIMMICK	lure	n/a	n/a	n/a	1
17.163	0.666650448	FOLDER	lure	n/a	n/a	n/a	1
17.829	0.36671705	PARKHOUSE	lure	n/a	n/a	n/a	1
18.196	0.633275735	DRAWBRIDGE	lure	n/a	n/a	n/a	1
18.829	0.633321058	IDIOM	lure	n/a	n/a	n/a	1
19.463	0.433325885	VOLCANO	lure	n/a	n/a	n/a	1
19.896	0.683327215	WARREN	lure	n/a	n/a	n/a	1
20.579	0.7333221	BOUTIQUE	lure	n/a	n/a	n/a	1
21.313	0.549994633	VEHICLE	lure	n/a	n/a	n/a	1
21.863	0.736237009	SPECK	lure	n/a	n/a	n/a	1
22.599	0.663739658	YACHTSMAN	lure	n/a	n/a	n/a	1
23.263	0.566661216	TIGHTROPE	lure	n/a	n/a	n/a	1
23.829	0.433322406	WINDJAMMER	lure	n/a	n/a	n/a	1
24.263	0.616663495	BELT	short	n/a	n/a	n/a	1
24.879	0.73331634	INSULATOR	lure	n/a	n/a	n/a	1
25.613	0.633330509	TACTIC	lure	n/a	n/a	n/a	1
26.246	0.553438078	ODDITY	lure	n/a	n/a	n/a	1
26.799	0.746539248	OMELET	lure	n/a	n/a	n/a	1
27.546	0.499996031	GRIMACE	lure	n/a	n/a	n/a	1
28.046	0.449985627	DETONATION	lure	n/a	n/a	n/a	1
28.496	0.516710489	REINDEER	lure	n/a	n/a	n/a	1
29.013	0.383278201	BOROUGH	lure	n/a	n/a	n/a	1
29.396	0.516660444	BUSTER	lure	n/a	n/a	n/a	1
29.912	0.500807016	HANDBRAKE	lure	n/a	n/a	n/a	1
30.413	0.699178517	GILL	lure	n/a	n/a	n/a	1
31.112	0.416709673	ZEAL	lure	n/a	n/a	n/a	1
31.529	0.599938831	BEARSKIN	lure	n/a	n/a	n/a	1
32.129	0.499997384	EPITAPH	lure	n/a	n/a	n/a	1
32.629	0.616658019	NOVEL	short	n/a	n/a	n/a	1
33.246	0.350028267	MILDEW	lure	n/a	n/a	n/a	1
33.596	0.649954655	BOATMEN	lure	n/a	n/a	n/a	1
34.246	0.46665812	HILARITY	lure	n/a	n/a	n/a	1
34.712	0.383325707	CRITERION	lure	n/a	n/a	n/a	1
35.096	0.666661009	TURMOIL	lure	n/a	n/a	n/a	1
35.762	0.316660686	SAUNA	lure	n/a	n/a	n/a	1
36.079	0.717828263	MISFORTUNE	lure	n/a	n/a	n/a	1
36.797	0.698824335	MONOGRAPH	lure	n/a	n/a	n/a	1
37.496	0.400029664	CONIFER	lure	n/a	n/a	n/a	1
37.896	0.366660069	BASKETWORK	lure	n/a	n/a	n/a	1
38.262	0.449957563	MAXIMA	lure	n/a	n/a	n/a	1
38.712	0.549986689	RATTLETRAP	lure	n/a	n/a	n/a	1
39.262	0.333328639	DEMERIT	lure	n/a	n/a	n/a	1
39.596	0.416700557	DEFENCE	lure	n/a	n/a	n/a	1
40.012	0.416622169	PILLBOX	lure	n/a	n/a	n/a	1
40.429	0.64999259	MOTTO	lure	n/a	n/a	n/a	1
41.079	2.016640983	PYRAMID	long	n/a	n/a	n/a	1
43.096	0.466651298	COLT	lure	n/a	n/a	n/a	1
43.562	0.399998688	PERSUASION	lure	n/a	n/a	n/a	1
43.962	0.699989474	VICINITY	lure	n/a	n/a	n/a	1
44.662	0.733323451	ADVENT	lure	n/a	n/a	n/a	1
45.396	0.516658043	MATCHMAKER	lure	n/a	n/a	n/a	1
45.912	0.683322425	FEEDBAG	lure	n/a	n/a	n/a	1
46.596	0.749987463	POSTURE	lure	n/a	n/a	n/a	1
47.346	0.683372023	CONTORTION	lure	n/a	n/a	n/a	1
48.029	0.367227046	LOBSTER	lure	n/a	n/a	n/a	1
48.396	0.699379892	BAKERY	lure	n/a	n/a	n/a	1
49.096	0.69998879	KNOT	lure	n/a	n/a	n/a	1
49.796	0.616659401	MATTER	short	n/a	n/a	n/a	1
50.412	0.583328196	CIGAR	lure	n/a	n/a	n/a	1
50.996	0.366706872	REPUBLIC	lure	n/a	n/a	n/a	1
51.362	0.549941143	GUERILLA	lure	n/a	n/a	n/a	1
51.912	0.750037483	MIXTURE	lure	n/a	n/a	n/a	1
52.662	0.483328011	ACCUSATION	lure	n/a	n/a	n/a	1
53.146	0.683279392	REMOVER	lure	n/a	n/a	n/a	1
53.829	0.534013078	RHYTHM	lure	n/a	n/a	n/a	1
54.363	0.382633418	INFO	lure	n/a	n/a	n/a	1
54.745	0.616663705	ADVERB	lure	n/a	n/a	n/a	1
55.362	0.466660421	CHURCHMEN	lure	n/a	n/a	n/a	1
55.829	0.749989742	SKYLARK	lure	n/a	n/a	n/a	1
56.579	0.366653043	KETCHUP	lure	n/a	n/a	n/a	1
56.945	0.366668244	CARPENTRY	lure	n/a	n/a	n/a	1
57.312	0.616653948	CONFUSION	lure	n/a	n/a	n/a	1
57.929	1.016658007	GRAPE	fruit	733	2	2	1
58.945	0.516691853	DRAPER	lure	n/a	n/a	n/a	1
59.462	0.716620919	GREENBACK	lure	n/a	n/a	n/a	1
60.179	0.566652348	BUSH	lure	n/a	n/a	n/a	1
60.745	0.683476488	MAINLAND	lure	n/a	n/a	n/a	1
61.429	0.553567566	FORMALITY	lure	n/a	n/a	n/a	1
61.982	0.479648526	SLOGAN	lure	n/a	n/a	n/a	1
62.462	0.749942347	FLYOVER	lure	n/a	n/a	n/a	1
63.212	0.550051378	CARNIVORE	lure	n/a	n/a	n/a	1
63.762	0.749981888	TAPESTRY	lure	n/a	n/a	n/a	1
64.512	0.583269127	POTATO	lure	n/a	n/a	n/a	1
65.095	0.633324319	HEARTTHROB	lure	n/a	n/a	n/a	1
65.729	0.683323319	EVE	lure	n/a	n/a	n/a	1
66.412	2.016646946	FOAM	long	n/a	n/a	n/a	1
68.429	0.366660029	PULLBACK	lure	n/a	n/a	n/a	1
68.795	0.699982172	ARROWHEAD	lure	n/a	n/a	n/a	1
69.495	0.516662175	GUNMAN	lure	n/a	n/a	n/a	1
70.012	0.399994055	DABBLER	lure	n/a	n/a	n/a	1
70.412	0.533328437	MOWER	lure	n/a	n/a	n/a	1
70.945	0.466663922	CARETAKER	lure	n/a	n/a	n/a	1
71.412	0.649987326	VIBRATION	lure	n/a	n/a	n/a	1
72.062	0.43332233	QUOTATION	lure	n/a	n/a	n/a	1
72.495	0.399995715	WORKMAN	lure	n/a	n/a	n/a	1
72.895	0.583332171	SPECTRUM	lure	n/a	n/a	n/a	1
73.479	0.499990775	VIOLIN	lure	n/a	n/a	n/a	1
73.979	0.503190586	NATURALISM	lure	n/a	n/a	n/a	1
74.482	0.596791945	HARDWARE	lure	n/a	n/a	n/a	1
75.078	0.616659669	ASHES	short	n/a	n/a	n/a	1
75.695	0.616655655	MATRIX	lure	n/a	n/a	n/a	1
76.312	0.566659767	TEAHOUSE	lure	n/a	n/a	n/a	1
76.878	0.466652732	SHOWMAN	lure	n/a	n/a	n/a	1
77.345	0.350001683	EMERGENCE	lure	n/a	n/a	n/a	1
77.695	0.521482221	METEORITE	lure	n/a	n/a	n/a	1
78.217	0.461837538	SWIMMER	lure	n/a	n/a	n/a	1
78.678	0.699983579	WOMANKIND	lure	n/a	n/a	n/a	1
79.378	0.566662813	VOTER	lure	n/a	n/a	n/a	1
79.945	0.466653296	LUNG	lure	n/a	n/a	n/a	1
80.412	0.649994395	TELECAST	lure	n/a	n/a	n/a	1
81.062	0.699993078	POSTMAN	lure	n/a	n/a	n/a	1
81.762	0.436335388	DESOLATION	lure	n/a	n/a	n/a	1
82.198	0.363656434	GUMDROP	lure	n/a	n/a	n/a	1
82.562	0.516650832	SUNTAN	lure	n/a	n/a	n/a	1
83.078	2.016645278	COUNCIL	long	n/a	n/a	n/a	1
85.095	0.716694887	DISPENSARY	lure	n/a	n/a	n/a	1
85.812	0.433288787	OSTEOPATHY	lure	n/a	n/a	n/a	1
86.245	0.416660522	ETHER	lure	n/a	n/a	n/a	1
86.662	0.65003451	JIGSAW	lure	n/a	n/a	n/a	1
87.312	0.583328176	SLOAN	lure	n/a	n/a	n/a	1
87.895	0.533272903	OUTPORT	lure	n/a	n/a	n/a	1
88.428	0.71901276	SKULLCAP	lure	n/a	n/a	n/a	1
89.147	0.714307265	ANTAGONIST	lure	n/a	n/a	n/a	1
89.862	0.516649476	DILUTION	lure	n/a	n/a	n/a	1
90.378	0.566661116	GASKET	lure	n/a	n/a	n/a	1
90.945	0.349994884	BEACON	lure	n/a	n/a	n/a	1
91.295	0.616660144	BUCKET	short	n/a	n/a	n/a	1
91.912	0.633322499	CAVEMEN	lure	n/a	n/a	n/a	1
92.545	0.453309278	NOISE	lure	n/a	n/a	n/a	1
92.998	0.430012339	SAFETY	lure	n/a	n/a	n/a	1
93.428	0.599989681	OPIATE	lure	n/a	n/a	n/a	1
94.028	0.749986863	COHESION	lure	n/a	n/a	n/a	1
94.778	0.549991954	WRIGHT	lure	n/a	n/a	n/a	1
95.328	0.6333304	CAT	lure	n/a	n/a	n/a	1
95.962	0.399991463	ARCHITECT	lure	n/a	n/a	n/a	1
96.362	0.399993555	THROTTLE	lure	n/a	n/a	n/a	1
96.762	0.349999986	CIRCUIT	lure	n/a	n/a	n/a	1
97.112	0.649985467	ALLIANCE	lure	n/a	n/a	n/a	1
97.761	0.733323443	SHAW	lure	n/a	n/a	n/a	1
98.495	0.733329195	EYESIGHT	lure	n/a	n/a	n/a	1
99.228	0.6666501	PATRONAGE	lure	n/a	n/a	n/a	1
99.895	2.016642139	CLUB	long	n/a	n/a	n/a	1
101.911	0.449990255	CROCK	lure	n/a	n/a	n/a	1
102.361	0.633324199	POSSESSOR	lure	n/a	n/a	n/a	1
102.995	0.466660444	COMMA	lure	n/a	n/a	n/a	1
103.461	0.56665734	ELEVATION	lure	n/a	n/a	n/a	1
104.028	0.716655808	ADORNMENT	lure	n/a	n/a	n/a	1
104.745	0.733328438	PHARMACIST	lure	n/a	n/a	n/a	1
105.478	0.583321683	BEAN	lure	n/a	n/a	n/a	1
106.061	0.516659202	PANDA	lure	n/a	n/a	n/a	1
106.578	0.799986313	COUNSELOR	lure	n/a	n/a	n/a	1
107.378	0.566661694	NEBULA	lure	n/a	n/a	n/a	1
107.945	0.517768511	GUNPOWDER	lure	n/a	n/a	n/a	1
108.462	0.615546507	PIANO	short	n/a	n/a	n/a	1
109.078	0.58336263	WALLFLOWER	lure	n/a	n/a	n/a	1
109.661	0.433341895	COPYCAT	lure	n/a	n/a	n/a	1
110.095	0.533274621	TOPSOIL	lure	n/a	n/a	n/a	1
110.628	0.483333168	DIRT	lure	n/a	n/a	n/a	1
111.111	0.716687921	PROTEGE	lure	n/a	n/a	n/a	1
111.828	0.566624814	SALARY	lure	n/a	n/a	n/a	1
112.395	0.466653762	RIFF	lure	n/a	n/a	n/a	1
112.861	0.550048987	APOSTLE	lure	n/a	n/a	n/a	1
113.411	0.516643603	HANDICRAFT	lure	n/a	n/a	n/a	1
113.928	0.366616975	CYLINDER	lure	n/a	n/a	n/a	1
114.295	0.483371648	CAPSULE	lure	n/a	n/a	n/a	1
114.778	0.700003185	CARPORT	lure	n/a	n/a	n/a	1
115.478	0.499935543	APPEARANCE	lure	n/a	n/a	n/a	1
115.978	0.449994333	SENSUALITY	lure	n/a	n/a	n/a	1
116.428	0.416658894	GASP	lure	n/a	n/a	n/a	1
116.845	2.016646107	TART	long	n/a	n/a	n/a	1
118.861	0.533320284	REDHEAD	lure	n/a	n/a	n/a	1
119.395	0.41670173	SYNAGOGUE	lure	n/a	n/a	n/a	1
119.811	0.383289352	CELLAR	lure	n/a	n/a	n/a	1
120.195	0.63335806	CITADEL	lure	n/a	n/a	n/a	1
120.828	0.450011131	VENERATION	lure	n/a	n/a	n/a	1
121.278	0.466606442	CATNIP	lure	n/a	n/a	n/a	1
121.744	0.400033956	JUNCTURE	lure	n/a	n/a	n/a	1
122.145	0.533284884	CAMERAMAN	lure	n/a	n/a	n/a	1
122.678	0.399998098	CONTINENCE	lure	n/a	n/a	n/a	1
123.078	0.649991745	TRAINER	lure	n/a	n/a	n/a	1
123.728	0.616653881	STEPMOTHER	lure	n/a	n/a	n/a	1
124.344	0.449998529	CANDOR	lure	n/a	n/a	n/a	1
124.794	0.616652057	BRASS	short	n/a	n/a	n/a	1
125.411	0.699988012	AUTOPSY	lure	n/a	n/a	n/a	1
126.111	0.549992682	ACETATE	lure	n/a	n/a	n/a	1
126.661	0.383328472	FISSURE	lure	n/a	n/a	n/a	1
127.044	0.500034847	LIGHTFOOT	lure	n/a	n/a	n/a	1
127.544	0.466622819	BICYCLIST	lure	n/a	n/a	n/a	1
128.011	0.333322114	ANTHILL	lure	n/a	n/a	n/a	1
128.344	0.583331698	PAYROLL	lure	n/a	n/a	n/a	1
128.928	0.616650144	ITINERARY	lure	n/a	n/a	n/a	1
129.544	0.733325417	RIVERBED	lure	n/a	n/a	n/a	1
130.278	0.566662826	VICEROY	lure	n/a	n/a	n/a	1
130.844	0.516654747	FRIEND	lure	n/a	n/a	n/a	1
131.361	0.516659524	EXTREMISM	lure	n/a	n/a	n/a	1
131.878	0.59998928	FOGHORN	lure	n/a	n/a	n/a	1
132.478	0.383330022	PEPPERONI	lure	n/a	n/a	n/a	1
132.861	2.016642469	COLUMN	long	n/a	n/a	n/a	1
134.878	0.566653021	LEADER	lure	n/a	n/a	n/a	1
135.444	0.416661261	BAILIFF	lure	n/a	n/a	n/a	1
135.861	0.633324158	ADORATION	lure	n/a	n/a	n/a	1
136.494	0.333325233	BIRTHMARK	lure	n/a	n/a	n/a	1
136.828	0.633325821	BATTALION	lure	n/a	n/a	n/a	1
137.461	0.349998643	SCOPE	lure	n/a	n/a	n/a	1
137.811	0.749990064	PORPOISE	lure	n/a	n/a	n/a	1
138.561	0.516660084	SPEEDBOAT	lure	n/a	n/a	n/a	1
139.078	0.499993721	MAID	lure	n/a	n/a	n/a	1
139.578	0.733316345	WOODSHED	lure	n/a	n/a	n/a	1
140.311	0.4833684	FLAMINGO	lure	n/a	n/a	n/a	1
140.794	0.716622675	STAG	lure	n/a	n/a	n/a	1
141.511	0.666649988	SPARK	short	n/a	n/a	n/a	1
142.178	0.683330476	CRYPT	lure	n/a	n/a	n/a	1
142.861	0.733319204	COMMODITY	lure	n/a	n/a	n/a	1
143.594	0.333325792	SONGBIRD	lure	n/a	n/a	n/a	1
143.927	0.683327474	COMBO	lure	n/a	n/a	n/a	1
144.611	0.616651871	GRANDSTAND	lure	n/a	n/a	n/a	1
145.227	0.516658981	SLEIGH	lure	n/a	n/a	n/a	1
145.744	0.483325917	OUTBREAK	lure	n/a	n/a	n/a	1
146.227	0.599999503	CENTURION	lure	n/a	n/a	n/a	1
146.827	0.516656457	RUNT	lure	n/a	n/a	n/a	1
147.344	0.783319534	CREAMERY	lure	n/a	n/a	n/a	1
148.127	0.399993463	COURTSHIP	lure	n/a	n/a	n/a	1
148.527	0.666661402	STUD	lure	n/a	n/a	n/a	1
149.194	0.399988276	TONER	lure	n/a	n/a	n/a	1
149.594	2.016643879	SANDPAPER	long	n/a	n/a	n/a	1
151.611	0.399987739	BROOMSTICK	lure	n/a	n/a	n/a	1
152.011	0.400001084	RAFT	lure	n/a	n/a	n/a	1
152.411	0.733318617	POTTER	lure	n/a	n/a	n/a	1
153.144	0.666656529	VIEWPOINT	lure	n/a	n/a	n/a	1
153.811	0.699991339	TORSO	lure	n/a	n/a	n/a	1
154.511	0.399990155	DITTY	lure	n/a	n/a	n/a	1
154.911	0.483326811	RESHUFFLE	lure	n/a	n/a	n/a	1
155.394	0.69999117	PARLIAMENT	lure	n/a	n/a	n/a	1
156.094	0.500049193	IDENTITY	lure	n/a	n/a	n/a	1
156.594	0.333279775	CHEMIST	lure	n/a	n/a	n/a	1
156.927	0.685126866	VAMPIRE	lure	n/a	n/a	n/a	1
157.612	0.564853209	AUTHORSHIP	lure	n/a	n/a	n/a	1
158.177	0.616653196	CARAVAN	short	n/a	n/a	n/a	1
158.794	0.550031195	QUACKERY	lure	n/a	n/a	n/a	1
159.344	0.433293756	OPERA	lure	n/a	n/a	n/a	1
159.777	0.633317807	MICROSCOPE	lure	n/a	n/a	n/a	1
160.411	0.64999556	CURBSIDE	lure	n/a	n/a	n/a	1
161.061	0.616659697	PHRASEBOOK	lure	n/a	n/a	n/a	1
161.677	0.66664889	SPHINX	lure	n/a	n/a	n/a	1
162.344	0.516661455	SEPARATISM	lure	n/a	n/a	n/a	1
162.861	0.333333067	QUEEN	lure	n/a	n/a	n/a	1
163.194	0.316655092	INSOLE	lure	n/a	n/a	n/a	1
163.511	0.483328265	LEADERSHIP	lure	n/a	n/a	n/a	1
163.994	0.349994661	INACTIVITY	lure	n/a	n/a	n/a	1
164.344	0.583325095	SOCKET	lure	n/a	n/a	n/a	1
164.927	0.766657069	REWRITE	lure	n/a	n/a	n/a	1
165.694	0.499991161	PINHEAD	lure	n/a	n/a	n/a	1
166.194	2.016644449	RACKET	long	n/a	n/a	n/a	1
168.21	0.483322665	HEATER	lure	n/a	n/a	n/a	1
168.694	0.416662728	BUGABOO	lure	n/a	n/a	n/a	1
169.11	0.416655846	BARTENDER	lure	n/a	n/a	n/a	1
169.527	0.399992476	DIAMOND	lure	n/a	n/a	n/a	1
169.927	0.616657553	HANDRAIL	lure	n/a	n/a	n/a	1
170.544	0.569587993	DUPLEX	lure	n/a	n/a	n/a	1
171.113	0.613729351	YOGURT	lure	n/a	n/a	n/a	1
171.727	0.416664048	CARICATURE	lure	n/a	n/a	n/a	1
172.144	0.666656291	NORTHERNER	lure	n/a	n/a	n/a	1
172.81	0.316658798	RAZZLE	lure	n/a	n/a	n/a	1
173.127	0.666658682	EXUBERANCE	lure	n/a	n/a	n/a	1
173.794	0.399997015	DICE	lure	n/a	n/a	n/a	1
174.194	1.016653463	STRAWBERRY	fruit	n/a	n/a	2	0
175.21	0.683319452	NIECE	lure	n/a	n/a	n/a	1
175.894	0.683329299	MATURITY	lure	n/a	n/a	n/a	1
176.577	0.599984266	JANITOR	lure	n/a	n/a	n/a	1
177.177	0.616665834	CLOTHESPIN	lure	n/a	n/a	n/a	1
177.794	0.533321595	HOOCH	lure	n/a	n/a	n/a	1
178.327	0.516657251	CRANNY	lure	n/a	n/a	n/a	1
178.844	0.399993479	VALENCE	lure	n/a	n/a	n/a	1
179.244	0.399994568	NUMEROLOGY	lure	n/a	n/a	n/a	1
179.644	0.366666492	PROTEST	lure	n/a	n/a	n/a	1
180.01	0.499993531	OGRE	lure	n/a	n/a	n/a	1
180.51	0.583360841	LOCKOUT	lure	n/a	n/a	n/a	1
181.094	0.349955876	RAZOR	lure	n/a	n/a	n/a	1
181.444	0.750027259	GAL	lure	n/a	n/a	n/a	1
182.194	0.399955576	POLO	lure	n/a	n/a	n/a	1
182.594	2.066635565	SAIL	long	n/a	n/a	n/a	1
184.66	0.416662296	BACKBOARD	lure	n/a	n/a	n/a	1
185.077	0.433325145	VIOLINIST	lure	n/a	n/a	n/a	1
185.51	0.583324025	INCUBATOR	lure	n/a	n/a	n/a	1
186.094	0.416661194	HOUSEWORK	lure	n/a	n/a	n/a	1
186.51	0.416661506	In/aOAD	lure	n/a	n/a	n/a	1
186.927	0.59999096	SONAR	lure	n/a	n/a	n/a	1
187.527	0.716661968	FOLKLORIST	lure	n/a	n/a	n/a	1
188.244	0.383321437	THYROID	lure	n/a	n/a	n/a	1
188.627	0.733329443	MANKIND	lure	n/a	n/a	n/a	1
189.36	0.749986452	CARRIER	lure	n/a	n/a	n/a	1
190.11	0.599989791	WRINGER	lure	n/a	n/a	n/a	1
190.71	0.349998836	MAVERICK	lure	n/a	n/a	n/a	1
191.06	1.01664786	BLUEBERRY	fruit	865	2	2	1
192.077	0.649990248	CAMPGROUND	lure	n/a	n/a	n/a	1
192.727	0.716694271	ACE	lure	n/a	n/a	n/a	1
193.443	0.366620647	NEUTRALITY	lure	n/a	n/a	n/a	1
193.81	0.383356778	SCENERY	lure	n/a	n/a	n/a	1
194.193	0.683297366	OVERHAUL	lure	n/a	n/a	n/a	1
194.877	0.566661258	ADRENALIN	lure	n/a	n/a	n/a	1
195.443	0.516656389	CROSSBOW	lure	n/a	n/a	n/a	1
195.96	0.316659188	COUSIN	lure	n/a	n/a	n/a	1
196.277	0.616665615	ANKLET	lure	n/a	n/a	n/a	1
196.893	0.683317318	DOLPHIN	lure	n/a	n/a	n/a	1
197.577	0.551712458	MONORAIL	lure	n/a	n/a	n/a	1
198.128	0.614941669	KEYPUNCH	lure	n/a	n/a	n/a	1
198.743	0.633320755	LATEX	lure	n/a	n/a	n/a	1
199.377	1.016653816	GRAPEFRUIT	fruit	645	2	2	1
200.393	0.399989527	WHALE	lure	n/a	n/a	n/a	1
200.793	0.46666607	FLUENCY	lure	n/a	n/a	n/a	1
201.26	0.733321743	TECH	lure	n/a	n/a	n/a	1
201.993	0.349992737	QUOTA	lure	n/a	n/a	n/a	1
202.343	0.616661327	PENTAGRAM	lure	n/a	n/a	n/a	1
202.96	0.683319536	INHIBITOR	lure	n/a	n/a	n/a	1
203.643	0.383325564	DOWNING	lure	n/a	n/a	n/a	1
204.027	0.749992406	MOUSTACHE	lure	n/a	n/a	n/a	1
204.777	0.733326596	NONPAYMENT	lure	n/a	n/a	n/a	1
205.51	0.666653999	HOPSCOTCH	lure	n/a	n/a	n/a	1
206.177	0.483363597	FAVORITISM	lure	n/a	n/a	n/a	1
206.66	0.533289454	RIM	lure	n/a	n/a	n/a	1
207.193	0.633382159	VICTOR	lure	n/a	n/a	n/a	1
207.827	1.017175962	GOOSEBERRY	fruit	867	2	2	1
208.844	0.68274528	FOUNTAIN	lure	n/a	n/a	n/a	1
209.527	0.683315072	LEGACY	lure	n/a	n/a	n/a	1
210.21	0.733330199	LADDER	lure	n/a	n/a	n/a	1
210.943	0.466657072	SUSHI	lure	n/a	n/a	n/a	1
211.41	0.333328142	CHECKER	lure	n/a	n/a	n/a	1
211.743	0.666656531	ICON	lure	n/a	n/a	n/a	1
212.41	0.349993821	INSIGNIA	lure	n/a	n/a	n/a	1
212.76	0.633329647	MONOPOLY	lure	n/a	n/a	n/a	1
213.393	0.549987672	SOJOURNER	lure	n/a	n/a	n/a	1
213.943	0.733320316	BUSYBODY	lure	n/a	n/a	n/a	1
214.676	0.483332694	BULLDOZER	lure	n/a	n/a	n/a	1
215.16	0.483322054	LETTERMEN	lure	n/a	n/a	n/a	1
215.643	0.383324452	RESPONDENT	lure	n/a	n/a	n/a	1
216.026	1.016658945	PEAR	fruit	n/a	n/a	2	0
217.043	0.566654089	SENATOR	lure	n/a	n/a	n/a	1
217.61	0.616658152	LIGHTNING	lure	n/a	n/a	n/a	1
218.226	0.733320942	CATEGORY	lure	n/a	n/a	n/a	1
218.96	0.466720021	BROCHURE	lure	n/a	n/a	n/a	1
219.426	0.416606211	HEADACHE	lure	n/a	n/a	n/a	1
219.843	0.749984856	NIGHTSHADE	lure	n/a	n/a	n/a	1
220.593	0.383326146	ATTENDANCE	lure	n/a	n/a	n/a	1
220.976	0.433326231	WHIMSEY	lure	n/a	n/a	n/a	1
221.41	0.435016767	KOALA	lure	n/a	n/a	n/a	1
221.845	0.481644516	DUPLICITY	lure	n/a	n/a	n/a	1
222.326	0.333329809	TOWNSMAN	lure	n/a	n/a	n/a	1
222.66	0.483320333	LIFEGUARD	lure	n/a	n/a	n/a	1
223.143	0.399995983	SILICONE	lure	n/a	n/a	n/a	1
223.543	0.399996119	PROSPECT	lure	n/a	n/a	n/a	1
223.943	0.483322049	SISTERHOOD	lure	n/a	n/a	n/a	1
224.426	0.649991441	FROCK	lure	n/a	n/a	n/a	1
225.076	0.733321585	SIGNALMAN	lure	n/a	n/a	n/a	1
225.81	0.583325036	RICE	lure	n/a	n/a	n/a	1
226.393	0.366661161	MISSY	lure	n/a	n/a	n/a	1
226.76	n/a	SEDGE	lure	n/a	n/a	n/a	1
238.009	0.599992482	FINGERTIP	lure	n/a	n/a	n/a	1
238.609	0.433330028	SQUATTER	lure	n/a	n/a	n/a	1
239.043	0.31665589	IRONY	lure	n/a	n/a	n/a	1
239.359	0.533329637	BRILLIANCY	lure	n/a	n/a	n/a	1
239.893	0.533327655	TECHNOLOGY	lure	n/a	n/a	n/a	1
240.426	0.35002734	APOTHECARY	lure	n/a	n/a	n/a	1
240.776	0.649954053	CASHMERE	lure	n/a	n/a	n/a	1
241.426	0.333330532	HIPPIE	lure	n/a	n/a	n/a	1
241.759	0.616722392	MATTER	short	n/a	n/a	n/a	1
242.376	0.499925527	CAMERAMEN	lure	n/a	n/a	n/a	1
242.876	0.666722875	STIPEND	lure	n/a	n/a	n/a	1
243.543	0.533266246	FIASCO	lure	n/a	n/a	n/a	1
244.076	0.404278022	SWEEPER	lure	n/a	n/a	n/a	1
244.48	0.346560437	OBSERVER	lure	n/a	n/a	n/a	1
244.827	0.71580127	REGGAE	lure	n/a	n/a	n/a	1
245.543	0.733322776	MOTORCYCLE	lure	n/a	n/a	n/a	1
246.276	0.716660093	PRODIGY	lure	n/a	n/a	n/a	1
246.993	0.399989293	FACT	lure	n/a	n/a	n/a	1
247.393	0.616655252	PARENTHOOD	lure	n/a	n/a	n/a	1
248.009	0.649993445	ATTENTION	lure	n/a	n/a	n/a	1
248.659	0.749995048	BONDHOLDER	lure	n/a	n/a	n/a	1
249.409	0.599982985	TSUNAMI	lure	n/a	n/a	n/a	1
250.009	1.016659934	NECTARINE	fruit	n/a	n/a	2	0
251.026	0.733323467	POPGUN	lure	156	2	n/a	0
251.759	0.683314823	CANAL	lure	n/a	n/a	n/a	1
252.443	0.699998968	EXAMPLE	lure	n/a	n/a	n/a	1
253.143	0.433324699	ZUCCHINI	lure	n/a	n/a	n/a	1
253.576	0.449995421	CHIPMUNK	lure	n/a	n/a	n/a	1
254.026	0.383326252	MANHOOD	lure	n/a	n/a	n/a	1
254.409	0.433328712	ISLE	lure	n/a	n/a	n/a	1
254.843	0.666652897	BONBON	lure	n/a	n/a	n/a	1
255.509	0.566704624	GARMENT	lure	n/a	n/a	n/a	1
256.076	0.56660815	LAMPLIGHT	lure	n/a	n/a	n/a	1
256.643	0.400002227	COMEBACK	lure	n/a	n/a	n/a	1
257.043	0.433326155	KINGFISHER	lure	n/a	n/a	n/a	1
257.476	0.499985528	FERRYMAN	lure	n/a	n/a	n/a	1
257.976	2.016645972	RIDGE	long	n/a	n/a	n/a	1
259.993	0.633317018	BASEMAN	lure	n/a	n/a	n/a	1
260.626	0.449998932	RAILROAD	lure	n/a	n/a	n/a	1
261.076	0.400059154	LAW	lure	n/a	n/a	n/a	1
261.476	0.683260989	NUMERAL	lure	n/a	n/a	n/a	1
262.159	0.449984869	TABLECLOTH	lure	n/a	n/a	n/a	1
262.609	0.653633138	TRAFFIC	lure	n/a	n/a	n/a	1
263.263	0.713017965	SEQUENCE	lure	n/a	n/a	n/a	1
263.976	0.549996699	ASPHALT	lure	n/a	n/a	n/a	1
264.526	0.6499816	CAMPER	lure	n/a	n/a	n/a	1
265.176	0.450000919	SEABIRD	lure	n/a	n/a	n/a	1
265.626	0.499992002	NUNNERY	lure	n/a	n/a	n/a	1
266.126	0.466653286	SWORDPLAY	lure	n/a	n/a	n/a	1
266.592	1.049991862	CANTELOUPE	fruit	n/a	n/a	2	0
267.642	0.599993964	ZENITH	lure	n/a	n/a	n/a	1
268.242	0.416661196	GUILT	lure	n/a	n/a	n/a	1
268.659	0.749981236	UPSTART	lure	n/a	n/a	n/a	1
269.409	0.366661991	COLLIE	lure	n/a	n/a	n/a	1
269.776	0.383373857	GIN	lure	n/a	n/a	n/a	1
270.159	0.349999669	NEIGHBOR	lure	n/a	n/a	n/a	1
270.509	0.466606695	NIGHTCLUB	lure	n/a	n/a	n/a	1
270.976	0.550000705	GIBLET	lure	n/a	n/a	n/a	1
271.526	0.583316586	PRESTIGE	lure	n/a	n/a	n/a	1
272.109	0.749991595	ALLIGATOR	lure	n/a	n/a	n/a	1
272.859	0.349992461	ASYLUM	lure	n/a	n/a	n/a	1
273.209	0.399994103	LADYSHIP	lure	n/a	n/a	n/a	1
273.609	0.499992844	PENn/aT	lure	n/a	n/a	n/a	1
274.109	0.550044694	DETRIMENT	lure	n/a	n/a	n/a	1
274.659	0.61661351	FIREBRICK	lure	n/a	n/a	n/a	1
275.276	2.016632492	FOAM	long	n/a	n/a	n/a	1
277.292	0.366668822	ARMCHAIR	lure	n/a	n/a	n/a	1
277.659	0.550023849	TRUTH	lure	n/a	n/a	n/a	1
278.209	0.533283225	AIRLINER	lure	n/a	n/a	n/a	1
278.742	0.499996204	TEARJERKER	lure	n/a	n/a	n/a	1
279.242	0.733319703	STICKLER	lure	n/a	n/a	n/a	1
279.976	0.649997649	SYMMETRY	lure	n/a	n/a	n/a	1
280.626	0.449994689	PERFECTION	lure	n/a	n/a	n/a	1
281.076	0.516650948	PERSONAGE	lure	n/a	n/a	n/a	1
281.592	0.666663434	SLINGER	lure	n/a	n/a	n/a	1
282.259	0.566660834	FAMILY	lure	n/a	n/a	n/a	1
282.826	0.7499866	FLAPJACK	lure	n/a	n/a	n/a	1
283.575	2.016636286	PYRAMID	long	n/a	n/a	n/a	1
285.592	0.566654783	GAZEBO	lure	n/a	n/a	n/a	1
286.159	0.666661519	AUTOLOADER	lure	n/a	n/a	n/a	1
286.825	0.399992868	FIST	lure	n/a	n/a	n/a	1
287.225	0.433330126	CAGE	lure	n/a	n/a	n/a	1
287.659	0.716659039	AMPLITUDE	lure	n/a	n/a	n/a	1
288.375	0.733368642	MAIDEN	lure	n/a	n/a	n/a	1
289.109	0.349945604	EQUITY	lure	n/a	n/a	n/a	1
289.459	0.566656927	ARCHER	lure	n/a	n/a	n/a	1
290.025	0.33332648	BARRACUDA	lure	n/a	n/a	n/a	1
290.359	0.518999681	SELLOUT	lure	n/a	n/a	n/a	1
290.878	0.747653279	ARISTOCRAT	lure	n/a	n/a	n/a	1
291.625	0.783385498	DEED	lure	n/a	n/a	n/a	1
292.409	0.616593834	ASHES	short	n/a	n/a	n/a	1
293.025	0.533318728	ENJOYMENT	lure	n/a	n/a	n/a	1
293.559	0.499993816	SAVANNA	lure	n/a	n/a	n/a	1
294.059	0.699993131	ARTICHOKE	lure	n/a	n/a	n/a	1
294.759	0.533324754	MICROMETER	lure	n/a	n/a	n/a	1
295.292	0.383332623	MARE	lure	n/a	n/a	n/a	1
295.675	0.449985978	FIGUREHEAD	lure	n/a	n/a	n/a	1
296.125	0.416703156	LONGBOAT	lure	n/a	n/a	n/a	1
296.542	0.649950477	FALLACY	lure	n/a	n/a	n/a	1
297.192	0.766657496	PLAYSUIT	lure	n/a	n/a	n/a	1
297.959	0.666658972	SUEDE	lure	n/a	n/a	n/a	1
298.625	0.649986618	HORN	lure	n/a	n/a	n/a	1
299.275	0.749987878	COMBUSTION	lure	n/a	n/a	n/a	1
300.025	0.516661393	MOUSE	lure	n/a	n/a	n/a	1
300.542	2.016635824	CLUB	long	n/a	n/a	n/a	1
302.559	0.666660053	FLUIDITY	lure	n/a	n/a	n/a	1
303.225	0.683321979	DIVORCEE	lure	n/a	n/a	n/a	1
303.909	0.550034118	MINORITY	lure	n/a	n/a	n/a	1
304.459	0.449949876	BUNGALOW	lure	n/a	n/a	n/a	1
304.909	0.583390389	BLEMISH	lure	n/a	n/a	n/a	1
305.492	0.666660125	FIREBALL	lure	n/a	n/a	n/a	1
306.159	0.699927736	MENACE	lure	n/a	n/a	n/a	1
306.858	0.599989318	NAUGHT	lure	n/a	n/a	n/a	1
307.458	0.416655674	RACER	lure	n/a	n/a	n/a	1
307.875	0.5999938	NATION	lure	n/a	n/a	n/a	1
308.475	0.683327389	ANARCHISM	lure	n/a	n/a	n/a	1
309.158	1.016652291	LIME	fruit	n/a	n/a	2	0
310.175	0.399990888	SHIPMATE	lure	62	2	n/a	0
310.575	0.716656402	COMPLAINT	lure	n/a	n/a	n/a	1
311.292	0.750999422	FIGURINE	lure	n/a	n/a	n/a	1
312.043	0.682310567	MALL	lure	n/a	n/a	n/a	1
312.725	0.699992383	CONVERTER	lure	n/a	n/a	n/a	1
313.425	0.383325647	MORGUE	lure	n/a	n/a	n/a	1
313.808	0.466659181	SUBPLOT	lure	n/a	n/a	n/a	1
314.275	0.618187539	JELLYFISH	lure	n/a	n/a	n/a	1
314.893	0.3318033	PAYOFF	lure	n/a	n/a	n/a	1
315.225	0.383324304	DIRECTIVE	lure	n/a	n/a	n/a	1
315.608	0.533328731	PRETEXT	lure	n/a	n/a	n/a	1
316.142	0.349991239	SPEEDWAY	lure	n/a	n/a	n/a	1
316.492	0.666658023	HILL	lure	n/a	n/a	n/a	1
317.158	0.616662563	CITY	short	n/a	n/a	n/a	1
317.775	0.651131792	TOOTHBRUSH	lure	n/a	n/a	n/a	1
318.426	0.365519538	BLACKSMITH	lure	n/a	n/a	n/a	1
318.792	0.549991707	FLOWCHART	lure	n/a	n/a	n/a	1
319.342	0.383326603	SEAFOOD	lure	n/a	n/a	n/a	1
319.725	0.483328791	VOLTAGE	lure	n/a	n/a	n/a	1
320.208	0.749984354	SOFTY	lure	n/a	n/a	n/a	1
320.958	0.316662003	CINNAMON	lure	n/a	n/a	n/a	1
321.275	0.649995058	BORER	lure	n/a	n/a	n/a	1
321.925	0.350076268	DISHWATER	lure	n/a	n/a	n/a	1
322.275	0.516576009	BUCKSHOT	lure	n/a	n/a	n/a	1
322.792	0.449995991	YARDSTICK	lure	n/a	n/a	n/a	1
323.242	0.599985831	QUANDARY	lure	n/a	n/a	n/a	1
323.842	0.599994673	LOUDMOUTH	lure	n/a	n/a	n/a	1
324.442	0.716657348	BARNACLE	lure	n/a	n/a	n/a	1
325.158	0.683320913	SILICA	lure	n/a	n/a	n/a	1
325.842	0.616658239	BRASS	short	n/a	n/a	n/a	1
326.458	0.516658903	TOOTHPASTE	lure	n/a	n/a	n/a	1
326.975	0.49999609	BEHOLDER	lure	n/a	n/a	n/a	1
327.475	0.504046719	DINOSAUR	lure	n/a	n/a	n/a	1
327.979	0.645937947	FEAT	lure	n/a	n/a	n/a	1
328.625	0.383323788	SOUTHERNER	lure	n/a	n/a	n/a	1
329.008	0.383330598	REPERTOIRE	lure	n/a	n/a	n/a	1
329.391	0.566655387	TURBOJET	lure	n/a	n/a	n/a	1
329.958	0.650030087	REGULATOR	lure	n/a	n/a	n/a	1
330.608	0.349954095	GESTURE	lure	n/a	n/a	n/a	1
330.958	0.583330921	PERMIT	lure	n/a	n/a	n/a	1
331.541	0.516655916	GRATITUDE	lure	n/a	n/a	n/a	1
332.058	0.566657405	EARPLUG	lure	n/a	n/a	n/a	1
332.625	0.533389204	HEALTH	lure	n/a	n/a	n/a	1
333.158	0.383303524	SPOILSPORT	lure	n/a	n/a	n/a	1
333.541	0.599950463	RAT	lure	n/a	n/a	n/a	1
334.141	2.016644256	SANDPAPER	long	n/a	n/a	n/a	1
336.158	0.549985736	FELICITY	lure	n/a	n/a	n/a	1
336.708	0.349994963	ENTRANCE	lure	n/a	n/a	n/a	1
337.058	0.533329722	FEEDBACK	lure	n/a	n/a	n/a	1
337.591	0.449991267	SURGERY	lure	n/a	n/a	n/a	1
338.041	0.516659492	MARSHALL	lure	n/a	n/a	n/a	1
338.558	0.599993469	ROAD	lure	n/a	n/a	n/a	1
339.158	0.383326493	HANDSTAND	lure	n/a	n/a	n/a	1
339.541	0.333330396	TASKMASTER	lure	n/a	n/a	n/a	1
339.875	0.716651268	DISTENSION	lure	n/a	n/a	n/a	1
340.591	0.400000579	STRAW	lure	n/a	n/a	n/a	1
340.991	0.316660983	IDOL	lure	n/a	n/a	n/a	1
341.308	0.516654622	GIRAFFE	lure	n/a	n/a	n/a	1
341.825	0.366664999	MAMMA	lure	n/a	n/a	n/a	1
342.191	0.616654214	PIANO	short	n/a	n/a	n/a	1
342.808	0.633326092	SIGNATURE	lure	n/a	n/a	n/a	1
343.441	0.433323814	COLLARBONE	lure	n/a	n/a	n/a	1
343.875	0.583331536	PROVIDER	lure	n/a	n/a	n/a	1
344.458	0.383324235	TOPOGRAPHY	lure	n/a	n/a	n/a	1
344.841	0.583325635	RUGBY	lure	n/a	n/a	n/a	1
345.425	0.366662735	BUREAUCRAT	lure	n/a	n/a	n/a	1
345.791	0.366659161	RENEWAL	lure	n/a	n/a	n/a	1
346.158	0.70004354	PALETTE	lure	n/a	n/a	n/a	1
346.858	0.399943031	PIER	lure	n/a	n/a	n/a	1
347.258	0.333324608	PEST	lure	n/a	n/a	n/a	1
347.591	0.483366551	TAKEOVER	lure	n/a	n/a	n/a	1
348.075	0.466660895	INNING	lure	n/a	n/a	n/a	1
348.541	0.450008922	MILLENNIA	lure	n/a	n/a	n/a	1
348.991	0.499940483	VOCATION	lure	n/a	n/a	n/a	1
349.491	0.533323691	PUDDLE	lure	n/a	n/a	n/a	1
350.025	0.499996629	IMMENSITY	lure	n/a	n/a	n/a	1
350.525	1.016647818	MELON	fruit	681	2	2	1
351.541	0.499995228	LIBERTY	lure	n/a	n/a	n/a	1
352.041	0.621063851	TRICKERY	lure	n/a	n/a	n/a	1
352.662	0.345626407	MAMA	lure	n/a	n/a	n/a	1
353.008	0.36666105	FUNFAIR	lure	n/a	n/a	n/a	1
353.375	0.516622469	IRONWORK	lure	n/a	n/a	n/a	1
353.891	0.699990629	WAYSIDE	lure	n/a	n/a	n/a	1
354.591	0.666651565	RECTANGLE	lure	n/a	n/a	n/a	1
355.258	0.449993916	COFFEEPOT	lure	n/a	n/a	n/a	1
355.708	0.566659914	MEMO	lure	n/a	n/a	n/a	1
356.274	0.333332411	OKRA	lure	n/a	n/a	n/a	1
356.608	0.616652563	LATRINE	lure	n/a	n/a	n/a	1
357.224	0.71666252	AMENDMENT	lure	n/a	n/a	n/a	1
357.941	0.699983797	MUSIC	lure	n/a	n/a	n/a	1
358.641	1.016656111	ORANGE	fruit	924	2	2	1
359.658	0.366660847	INNKEEPER	lure	n/a	n/a	n/a	1
360.024	0.549991453	MARKSMAN	lure	n/a	n/a	n/a	1
360.574	0.333336118	ANTIFREEZE	lure	n/a	n/a	n/a	1
360.908	0.566650995	ARCHBISHOP	lure	n/a	n/a	n/a	1
361.474	0.366658641	PACKAGE	lure	n/a	n/a	n/a	1
361.841	0.499992208	MILL	lure	n/a	n/a	n/a	1
362.341	0.366661684	QUARRYMEN	lure	n/a	n/a	n/a	1
362.708	0.604699429	GENETICIST	lure	n/a	n/a	n/a	1
363.312	0.445291603	PRETENDER	lure	n/a	n/a	n/a	1
363.758	0.383323826	SCHOOLROOM	lure	n/a	n/a	n/a	1
364.141	0.566658483	POORHOUSE	lure	n/a	n/a	n/a	1
364.708	0.449992551	PRECURSOR	lure	n/a	n/a	n/a	1
365.158	0.349999539	DORMITORY	lure	n/a	n/a	n/a	1
365.508	0.466660323	SLAB	lure	n/a	n/a	n/a	1
365.974	0.466658513	REUNION	lure	n/a	n/a	n/a	1
366.441	0.41666197	APOLOGIST	lure	n/a	n/a	n/a	1
366.858	0.616654151	SPARK	short	n/a	n/a	n/a	1
367.474	0.399992385	SUNSHADE	lure	n/a	n/a	n/a	1
367.874	0.483331997	TECHNICIAN	lure	n/a	n/a	n/a	1
368.358	0.483324019	COTE	lure	n/a	n/a	n/a	1
368.841	0.633320587	SERVER	lure	n/a	n/a	n/a	1
369.474	0.616720858	VIGOR	lure	n/a	n/a	n/a	1
370.091	0.567209627	SANDER	lure	n/a	n/a	n/a	1
370.658	0.402569114	DEPARTURE	lure	n/a	n/a	n/a	1
371.061	0.513474352	LIVESTOCK	lure	n/a	n/a	n/a	1
371.574	0.349991595	SHIPYARD	lure	n/a	n/a	n/a	1
371.924	0.483329156	VORTEX	lure	n/a	n/a	n/a	1
372.408	0.616660456	JIFFY	lure	n/a	n/a	n/a	1
373.024	0.499988965	BRIDESMAID	lure	n/a	n/a	n/a	1
373.524	0.466658486	HEADSTONE	lure	n/a	n/a	n/a	1
373.991	0.699995887	HAIKU	lure	n/a	n/a	n/a	1
374.691	0.433322975	DOLLAR	lure	n/a	n/a	n/a	1
375.124	2.016638977	TART	long	n/a	n/a	n/a	1
377.141	0.533326453	TEMPO	lure	n/a	n/a	n/a	1
377.674	0.568413909	SMITH	lure	n/a	n/a	n/a	1
378.243	0.698234538	FINALITY	lure	n/a	n/a	n/a	1
378.941	0.383323426	SCENE	lure	n/a	n/a	n/a	1
379.324	0.40000022	BARITONE	lure	n/a	n/a	n/a	1
379.724	0.61665186	MEMORANDUM	lure	n/a	n/a	n/a	1
380.341	0.633329688	NEWSSTAND	lure	n/a	n/a	n/a	1
380.974	0.416655444	TURNIP	lure	n/a	n/a	n/a	1
381.391	0.699994649	TIMEPIECE	lure	n/a	n/a	n/a	1
382.091	0.649991481	PREMISE	lure	n/a	n/a	n/a	1
382.741	0.433325166	OVERSPILL	lure	n/a	n/a	n/a	1
383.174	2.016636681	COLUMN	long	n/a	n/a	n/a	1
385.191	0.383329215	WOMANIZER	lure	n/a	n/a	n/a	1
385.574	0.333365542	VISION	lure	n/a	n/a	n/a	1
385.907	0.533342825	STEELMAKER	lure	n/a	n/a	n/a	1
386.441	0.566655719	DISBARMENT	lure	n/a	n/a	n/a	1
387.007	0.566607214	CONSPIRACY	lure	n/a	n/a	n/a	1
387.574	0.366657177	EGGHEAD	lure	n/a	n/a	n/a	1
387.941	0.733327137	LAMPPOST	lure	n/a	n/a	n/a	1
388.674	0.400049283	SUBTLETY	lure	n/a	n/a	n/a	1
389.074	0.583267911	SPOTTER	lure	n/a	n/a	n/a	1
389.657	0.583326409	SERVICEMEN	lure	n/a	n/a	n/a	1
390.241	0.69998655	GADGET	lure	n/a	n/a	n/a	1
390.941	0.733328796	AMORALITY	lure	n/a	n/a	n/a	1
391.674	1.016645465	PINEAPPLE	fruit	n/a	n/a	2	0
392.691	0.433331405	DYNASTY	lure	n/a	n/a	n/a	1
393.124	0.716657994	STEPSON	lure	n/a	n/a	n/a	1
393.841	0.516656633	COMMITTEE	lure	n/a	n/a	n/a	1
394.357	0.483328617	VERTIGO	lure	n/a	n/a	n/a	1
394.841	0.633319618	ONYX	lure	n/a	n/a	n/a	1
395.474	0.516661245	BOUNTY	lure	n/a	n/a	n/a	1
395.991	0.633323928	INHIBITION	lure	n/a	n/a	n/a	1
396.624	0.716659905	FLASHLIGHT	lure	n/a	n/a	n/a	1
397.341	0.400034716	TRACER	lure	n/a	n/a	n/a	1
397.741	0.566617029	MAKEUP	lure	n/a	n/a	n/a	1
398.307	0.383327004	SIDEWALK	lure	n/a	n/a	n/a	1
398.691	0.416657033	MONOLOGIST	lure	n/a	n/a	n/a	1
399.107	0.366666728	TUNDRA	lure	n/a	n/a	n/a	1
399.474	0.583323829	YEAR	lure	n/a	n/a	n/a	1
400.057	2.016640331	RACKET	long	n/a	n/a	n/a	1
402.074	0.58332435	TUBE	lure	n/a	n/a	n/a	1
402.657	0.733318971	CHANTER	lure	n/a	n/a	n/a	1
403.39	0.649988209	LARCENY	lure	n/a	n/a	n/a	1
404.04	0.649990925	DISTILLER	lure	n/a	n/a	n/a	1
404.69	0.518431087	CHAMPAIGN	lure	n/a	n/a	n/a	1
405.209	0.33156285	SLIPSTREAM	lure	n/a	n/a	n/a	1
405.54	0.466659243	DIAGRAM	lure	n/a	n/a	n/a	1
406.007	0.716657049	RHINO	lure	n/a	n/a	n/a	1
406.724	0.4833246	STAKEOUT	lure	n/a	n/a	n/a	1
407.207	0.34999599	FELLA	lure	n/a	n/a	n/a	1
407.557	0.583318957	TENT	lure	n/a	n/a	n/a	1
408.14	0.600383377	BEAUTY	lure	n/a	n/a	n/a	1
408.741	0.616272731	CARAVAN	short	n/a	n/a	n/a	1
409.357	0.499991753	HATCHWAY	lure	n/a	n/a	n/a	1
409.857	0.533325088	HANDLEBAR	lure	n/a	n/a	n/a	1
410.39	0.58332049	DEPTH	lure	n/a	n/a	n/a	1
410.974	0.716659593	EPISODE	lure	n/a	n/a	n/a	1
411.69	0.683321435	SCARECROW	lure	n/a	n/a	n/a	1
412.374	0.449996279	EYEFUL	lure	n/a	n/a	n/a	1
412.824	0.349990837	TRANSLATOR	lure	n/a	n/a	n/a	1
413.174	0.533328923	MOLAR	lure	n/a	n/a	n/a	1
413.707	0.549990714	MORN	lure	n/a	n/a	n/a	1
414.257	0.599988955	MEMBER	lure	n/a	n/a	n/a	1
414.857	0.433332565	ENTREATY	lure	n/a	n/a	n/a	1
415.29	0.666654687	SKYLIGHT	lure	n/a	n/a	n/a	1
415.957	0.316661676	RIBCAGE	lure	n/a	n/a	n/a	1
416.274	0.349996768	FRESHMAN	lure	n/a	n/a	n/a	1
416.624	0.316660158	LANDSCAPE	lure	n/a	n/a	n/a	1
416.94	2.049974202	COUNCIL	long	n/a	n/a	n/a	1
418.99	0.699992021	CLIPPER	lure	n/a	n/a	n/a	1
419.69	0.616655282	MISUSE	lure	n/a	n/a	n/a	1
420.307	0.649990128	FORGERY	lure	n/a	n/a	n/a	1
420.957	0.433325345	PARANOIA	lure	n/a	n/a	n/a	1
421.39	0.583323823	HAIRDO	lure	n/a	n/a	n/a	1
421.974	0.5666606	PRINTOUT	lure	n/a	n/a	n/a	1
422.54	0.633638463	PREDICATE	lure	n/a	n/a	n/a	1
423.174	0.649676276	CONTRACTOR	lure	n/a	n/a	n/a	1
423.823	0.533322314	COOKER	lure	n/a	n/a	n/a	1
424.357	0.64998993	BOOKMOBILE	lure	n/a	n/a	n/a	1
425.007	0.766660354	WINDOWSILL	lure	n/a	n/a	n/a	1
425.773	0.616657737	BUCKET	short	n/a	n/a	n/a	1
426.39	0.649988771	ROADBED	lure	n/a	n/a	n/a	1
427.04	0.316663769	ESPRESSO	lure	n/a	n/a	n/a	1
427.357	0.383326171	HOMEMAKER	lure	n/a	n/a	n/a	1
427.74	0.466661862	MISSTEP	lure	n/a	n/a	n/a	1
428.207	0.450051778	SPANIEL	lure	n/a	n/a	n/a	1
428.657	0.516596907	BABOON	lure	n/a	n/a	n/a	1
429.173	0.668086414	EXPECTANCY	lure	n/a	n/a	n/a	1
429.841	0.715231763	POSTCODE	lure	n/a	n/a	n/a	1
430.557	0.566655482	CONCERT	lure	n/a	n/a	n/a	1
431.123	0.366664908	TERRORISM	lure	n/a	n/a	n/a	1
431.49	0.583323541	RECEPTION	lure	n/a	n/a	n/a	1
432.073	0.349991481	CLOCK	lure	n/a	n/a	n/a	1
432.423	0.516662276	NUT	lure	n/a	n/a	n/a	1
432.94	0.349991075	CURD	lure	n/a	n/a	n/a	1
433.29	0.566662263	GUARDIAN	lure	n/a	n/a	n/a	1
433.857	0.616659229	NOVEL	short	n/a	n/a	n/a	1
434.473	0.58332618	BACKYARD	lure	n/a	n/a	n/a	1
435.057	0.399991259	GOOSE	lure	n/a	n/a	n/a	1
435.457	0.54999221	BOWMAN	lure	n/a	n/a	n/a	1
436.007	0.66665976	RELUCTANCE	lure	n/a	n/a	n/a	1
436.673	0.616656527	RECOUNT	lure	n/a	n/a	n/a	1
437.29	0.549990166	WORKBENCH	lure	n/a	n/a	n/a	1
437.84	0.616660354	XYLOPHONE	lure	n/a	n/a	n/a	1
438.457	0.733322465	FINGERNAIL	lure	n/a	n/a	n/a	1
439.19	0.4833256	TWILL	lure	n/a	n/a	n/a	1
439.673	0.433327098	PEDESTAL	lure	n/a	n/a	n/a	1
440.107	0.366659575	CHECKLIST	lure	n/a	n/a	n/a	1
440.473	0.516660428	PRESSMAN	lure	n/a	n/a	n/a	1
440.99	0.633325276	SKILLET	lure	n/a	n/a	n/a	1
441.623	0.666654969	DILATATION	lure	n/a	n/a	n/a	1
442.29	2.016641815	SAIL	long	n/a	n/a	n/a	1
444.307	0.316662083	PSEUDONYM	lure	n/a	n/a	n/a	1
444.623	0.683322774	FENCER	lure	n/a	n/a	n/a	1
445.307	0.666656547	JACKPOT	lure	n/a	n/a	n/a	1
445.973	0.599992029	EXPONENT	lure	n/a	n/a	n/a	1
446.573	0.684609428	MILITIA	lure	n/a	n/a	n/a	1
447.258	0.43204186	DEFENDER	lure	n/a	n/a	n/a	1
447.69	0.349993804	SUBWAY	lure	n/a	n/a	n/a	1
448.04	0.68332629	BODY	lure	n/a	n/a	n/a	1
448.723	0.366662949	THROWER	lure	n/a	n/a	n/a	1
449.09	0.566712005	CREATION	lure	n/a	n/a	n/a	1
449.656	0.533266826	ANTIPATHY	lure	n/a	n/a	n/a	1
450.19	0.449996533	LORE	lure	n/a	n/a	n/a	1
450.64	0.616659434	BELT	short	n/a	n/a	n/a	1
451.256	0.666654306	WINGSPREAD	lure	n/a	n/a	n/a	1
451.923	0.70005014	COMPLIANCE	lure	n/a	n/a	n/a	1
452.623	0.649930166	VILLA	lure	n/a	n/a	n/a	1
453.273	0.500107818	VANGUARD	lure	n/a	n/a	n/a	1
453.773	0.483214417	DOE	lure	n/a	n/a	n/a	1
454.256	0.466656489	BOASTER	lure	n/a	n/a	n/a	1
454.723	0.49999122	OFFSHOOT	lure	n/a	n/a	n/a	1
455.223	0.716718138	MOUTHFUL	lure	n/a	n/a	n/a	1
455.94	0.516644938	SUBMARINE	lure	n/a	n/a	n/a	1
456.456	0.349950591	GIFT	lure	n/a	n/a	n/a	1
456.806	0.469611847	SUCCESSOR	lure	n/a	n/a	n/a	1
457.276	0.481506291	DESK	lure	n/a	n/a	n/a	1
457.757	0.598858946	CAVEMAN	lure	n/a	n/a	n/a	1
458.356	0.433325603	TELLER	lure	n/a	n/a	n/a	1
458.79	0.44999397	CATTLEMEN	lure	n/a	n/a	n/a	1
459.24	0.583387225	CASSETTE	lure	n/a	n/a	n/a	1
459.823	0.500022801	DESPOTISM	lure	n/a	n/a	n/a	1
460.323	0.733231206	TOURISM	lure	n/a	n/a	n/a	1
461.056	0.336084466	ALPHABET	lure	n/a	n/a	n/a	1
461.392	0.730634563	SOLITUDE	lure	n/a	n/a	n/a	1
462.123	0.616648582	STEREO	lure	n/a	n/a	n/a	1
462.74	0.54992903	CRAWLSPACE	lure	n/a	n/a	n/a	1
463.29	0.483329543	HANGER	lure	n/a	n/a	n/a	1
463.773	0.599992035	ALIMONY	lure	n/a	n/a	n/a	1
464.373	0.499990121	EXALTATION	lure	n/a	n/a	n/a	1
464.873	n/a	NAVIGATOR	lure	n/a	n/a	n/a	1