onset	duration	stim	cond	dur	RT	resp	cresp	acc
4.054	0.747311825	LEGEND	lure	n/a	n/a	n/a	n/a	1
4.801	0.550036677	BLIMP	lure	n/a	n/a	n/a	n/a	1
5.351	0.483281783	PUNISHMENT	lure	n/a	n/a	n/a	n/a	1
5.835	0.383328252	OLIGARCHY	lure	n/a	n/a	n/a	n/a	1
6.218	0.533328016	ABDUCTION	lure	n/a	n/a	n/a	n/a	1
6.751	0.666653764	EVOCATION	lure	n/a	n/a	n/a	n/a	1
7.418	0.333330426	LECH	lure	n/a	n/a	n/a	n/a	1
7.751	2.016638483	RACKET	long	n/a	n/a	n/a	n/a	1
9.768	0.599990708	HERON	lure	n/a	n/a	n/a	n/a	1
10.368	0.799987659	SKYWAY	lure	n/a	n/a	n/a	n/a	1
11.168	0.583327019	DOWNER	lure	n/a	n/a	n/a	n/a	1
11.751	0.499991693	ASSURANCE	lure	n/a	n/a	n/a	n/a	1
12.251	0.616716854	MISSILE	lure	n/a	n/a	n/a	n/a	1
12.868	0.366597172	DOWNPOUR	lure	n/a	n/a	n/a	n/a	1
13.235	0.566657776	ENORMITY	lure	n/a	n/a	n/a	n/a	1
13.801	0.619559859	SHOWROOM	lure	n/a	n/a	n/a	n/a	1
14.421	0.418563452	OBVERSE	lure	n/a	n/a	n/a	n/a	1
14.839	0.561923551	HYDRANT	lure	n/a	n/a	n/a	n/a	1
15.401	0.366599385	TRIVIA	lure	n/a	n/a	n/a	n/a	1
15.768	1.050040984	CHERRY	fruit	n/a	693	2	2	1
16.818	0.749934156	MULE	lure	n/a	n/a	n/a	n/a	1
17.568	0.600075293	INFRACTION	lure	n/a	n/a	n/a	n/a	1
18.168	0.583240121	JEWELER	lure	n/a	n/a	n/a	n/a	1
18.751	0.416654609	CRITICISM	lure	n/a	n/a	n/a	n/a	1
19.168	0.733324846	BOOKMARK	lure	n/a	n/a	n/a	n/a	1
19.901	0.316663366	HYPERBOLE	lure	n/a	n/a	n/a	n/a	1
20.218	0.449995574	SPINE	lure	n/a	n/a	n/a	n/a	1
20.668	0.483388586	EVERGREEN	lure	n/a	n/a	n/a	n/a	1
21.151	0.583260423	COMBAT	lure	n/a	n/a	n/a	n/a	1
21.734	0.649992972	PAJAMA	lure	n/a	n/a	n/a	n/a	1
22.384	0.383328107	PROFESSION	lure	n/a	n/a	n/a	n/a	1
22.768	0.650054314	RESIDENCE	lure	n/a	n/a	n/a	n/a	1
23.418	0.649925477	EARDRUM	lure	n/a	n/a	n/a	n/a	1
24.068	1.016653106	KIWI	fruit	n/a	745	2	2	1
25.084	0.449988722	VIEWFINDER	lure	n/a	n/a	n/a	n/a	1
25.534	0.716728884	SCROOGE	lure	n/a	n/a	n/a	n/a	1
26.251	0.483305934	ARMADILLO	lure	n/a	n/a	n/a	n/a	1
26.734	0.383279166	NAVEL	lure	n/a	n/a	n/a	n/a	1
27.118	0.449994687	HOLDUP	lure	n/a	n/a	n/a	n/a	1
27.568	0.716653477	DIME	lure	n/a	n/a	n/a	n/a	1
28.284	0.58332704	MOMENTUM	lure	n/a	n/a	n/a	n/a	1
28.868	0.466696403	ADVERSARY	lure	n/a	n/a	n/a	n/a	1
29.334	0.616621818	GROUNDWORK	lure	n/a	n/a	n/a	n/a	1
29.951	0.366662403	DELEGATION	lure	n/a	n/a	n/a	n/a	1
30.318	0.516656905	ARBITRATOR	lure	n/a	n/a	n/a	n/a	1
30.834	0.349993709	GEOLOGIST	lure	n/a	n/a	n/a	n/a	1
31.184	0.399994041	WRANGLER	lure	n/a	n/a	n/a	n/a	1
31.584	0.733370219	PYTHON	lure	n/a	n/a	n/a	n/a	1
32.318	1.016610123	NECTARINE	fruit	n/a	n/a	n/a	2	0
33.334	0.399993988	ORCHID	lure	n/a	n/a	n/a	n/a	1
33.734	0.651664587	HYSTERIA	lure	n/a	n/a	n/a	n/a	1
34.386	0.464984892	INSECURITY	lure	n/a	n/a	n/a	n/a	1
34.851	0.399992364	CASEWORKER	lure	n/a	n/a	n/a	n/a	1
35.251	0.399994838	DROUGHT	lure	n/a	n/a	n/a	n/a	1
35.651	0.449991947	MANIAC	lure	n/a	n/a	n/a	n/a	1
36.101	0.64999266	TRACKER	lure	n/a	n/a	n/a	n/a	1
36.751	0.749992336	HOOP	lure	n/a	n/a	n/a	n/a	1
37.501	0.733314529	LATENCY	lure	n/a	n/a	n/a	n/a	1
38.234	0.366660914	RESUMPTION	lure	n/a	n/a	n/a	n/a	1
38.601	0.516662804	ENDEARMENT	lure	n/a	n/a	n/a	n/a	1
39.117	0.683320944	EPICENTER	lure	n/a	n/a	n/a	n/a	1
39.801	0.583330539	SOLIDARITY	lure	n/a	n/a	n/a	n/a	1
40.384	0.549991889	WORD	lure	n/a	n/a	n/a	n/a	1
40.934	0.616720992	NOVEL	short	n/a	n/a	n/a	n/a	1
41.551	0.483263908	VALOR	lure	n/a	n/a	n/a	n/a	1
42.034	0.466720549	COVERAGE	lure	n/a	n/a	n/a	n/a	1
42.501	0.549984591	RESOn/aCE	lure	n/a	n/a	n/a	n/a	1
43.051	0.316653722	COURTIER	lure	n/a	n/a	n/a	n/a	1
43.367	0.61661143	FOOTBOARD	lure	n/a	n/a	n/a	n/a	1
43.984	0.633321805	PROPHET	lure	n/a	n/a	n/a	n/a	1
44.617	0.483329746	TYPHOON	lure	n/a	n/a	n/a	n/a	1
45.101	0.616658771	MANUSCRIPT	lure	n/a	n/a	n/a	n/a	1
45.717	0.34998971	ROUGHRIDER	lure	n/a	n/a	n/a	n/a	1
46.067	0.483329013	CONVERSION	lure	n/a	n/a	n/a	n/a	1
46.551	0.366722458	MOVIE	lure	n/a	n/a	n/a	n/a	1
46.917	0.616597259	VEIN	lure	n/a	n/a	n/a	n/a	1
47.534	0.700053563	HORNET	lure	n/a	n/a	n/a	n/a	1
48.234	0.616593883	SABLE	lure	n/a	n/a	n/a	n/a	1
48.851	0.449993153	TRAVELER	lure	n/a	n/a	n/a	n/a	1
49.301	1.054674188	APPLE	fruit	n/a	752	2	2	1
50.355	0.311971102	DOMICILE	lure	n/a	n/a	n/a	n/a	1
50.667	0.416664705	SHOELACE	lure	n/a	n/a	n/a	n/a	1
51.084	0.333328496	MEMOIR	lure	n/a	n/a	n/a	n/a	1
51.417	0.316723447	BOWEL	lure	n/a	n/a	n/a	n/a	1
51.734	0.733260672	AVALANCHE	lure	n/a	n/a	n/a	n/a	1
52.467	0.716654914	DUMBBELL	lure	n/a	n/a	n/a	n/a	1
53.184	0.649987298	DECOY	lure	n/a	n/a	n/a	n/a	1
53.834	0.416659759	PHENOMENA	lure	n/a	n/a	n/a	n/a	1
54.251	0.533332939	COUP	lure	n/a	n/a	n/a	n/a	1
54.784	0.349989916	SCULPTOR	lure	n/a	n/a	n/a	n/a	1
55.134	0.633329463	VECTOR	lure	n/a	n/a	n/a	n/a	1
55.767	0.383326092	AUTO	lure	n/a	n/a	n/a	n/a	1
56.151	0.449992533	GROCERY	lure	n/a	n/a	n/a	n/a	1
56.601	0.433325782	SCAPEGOAT	lure	n/a	n/a	n/a	n/a	1
57.034	0.616657175	SHIPMENT	lure	n/a	n/a	n/a	n/a	1
57.651	2.016639567	RIDGE	long	n/a	n/a	n/a	n/a	1
59.667	0.500973416	WEAPOn/aY	lure	n/a	n/a	n/a	n/a	1
60.168	0.451562297	FONDUE	lure	n/a	n/a	n/a	n/a	1
60.62	0.697498278	Un/aIMITY	lure	n/a	n/a	n/a	n/a	1
61.317	0.616599282	TEAMWORK	lure	n/a	n/a	n/a	n/a	1
61.934	0.649995401	NOVELTY	lure	n/a	n/a	n/a	n/a	1
62.584	0.599991132	LYRE	lure	n/a	n/a	n/a	n/a	1
63.184	0.616655049	YELLER	lure	n/a	n/a	n/a	n/a	1
63.8	0.735168466	PLAYER	lure	n/a	n/a	n/a	n/a	1
64.536	0.73557113	TIMEKEEPER	lure	n/a	n/a	n/a	n/a	1
65.271	0.512566038	WATERFALL	lure	n/a	n/a	n/a	n/a	1
65.784	2.016640052	COUNCIL	long	n/a	n/a	n/a	n/a	1
67.8	0.466656456	STREAMSIDE	lure	n/a	n/a	n/a	n/a	1
68.267	0.56665909	SMUDGE	lure	n/a	n/a	n/a	n/a	1
68.834	0.58336729	TREND	lure	n/a	n/a	n/a	n/a	1
69.417	0.699997964	POLICEMAN	lure	n/a	n/a	n/a	n/a	1
70.117	0.483275734	PRIEST	lure	n/a	n/a	n/a	n/a	1
70.6	0.36666236	TUNIC	lure	n/a	n/a	n/a	n/a	1
70.967	0.699991247	MORALITY	lure	n/a	n/a	n/a	n/a	1
71.667	0.61665648	ENTOMOLOGY	lure	n/a	n/a	n/a	n/a	1
72.284	0.566659837	BOARDER	lure	n/a	n/a	n/a	n/a	1
72.85	0.616659211	HORSEPOWER	lure	n/a	n/a	n/a	n/a	1
73.467	0.633319884	FIRELIGHT	lure	n/a	n/a	n/a	n/a	1
74.1	1.01665538	GRAPE	fruit	n/a	745	2	2	1
75.117	0.683320413	DIAMETER	lure	n/a	n/a	n/a	n/a	1
75.8	0.549996426	COMPILER	lure	n/a	n/a	n/a	n/a	1
76.35	0.733366963	MYSTERY	lure	n/a	n/a	n/a	n/a	1
77.084	0.716609205	POSTULATE	lure	n/a	n/a	n/a	n/a	1
77.8	0.450040561	HOSPICE	lure	n/a	n/a	n/a	n/a	1
78.25	0.433279699	CONJUNCT	lure	n/a	n/a	n/a	n/a	1
78.684	0.666734592	CREDENCE	lure	n/a	n/a	n/a	n/a	1
79.35	0.499980385	DEERSKIN	lure	n/a	n/a	n/a	n/a	1
79.85	0.516595893	PUBLISHER	lure	n/a	n/a	n/a	n/a	1
80.367	0.599990457	HATCHERY	lure	n/a	n/a	n/a	n/a	1
80.967	0.399993638	FLOODLIGHT	lure	n/a	n/a	n/a	n/a	1
81.367	0.683322425	WINDOWPANE	lure	n/a	n/a	n/a	n/a	1
82.05	0.40005036	REVERENCE	lure	n/a	n/a	n/a	n/a	1
82.45	0.616599607	MATTER	short	n/a	n/a	n/a	n/a	1
83.067	0.349997213	CYNIC	lure	n/a	n/a	n/a	n/a	1
83.417	0.766656366	BRICK	lure	n/a	n/a	n/a	n/a	1
84.183	0.549995512	DOCTRINE	lure	n/a	n/a	n/a	n/a	1
84.733	0.549990072	THEOREM	lure	n/a	n/a	n/a	n/a	1
85.283	0.466719255	CONFECTION	lure	n/a	n/a	n/a	n/a	1
85.75	0.683259802	TRIBUTE	lure	n/a	n/a	n/a	n/a	1
86.433	0.399998252	WHISKEY	lure	n/a	n/a	n/a	n/a	1
86.833	0.400116758	HARDSHIP	lure	n/a	n/a	n/a	n/a	1
87.234	0.316602203	GENE	lure	n/a	n/a	n/a	n/a	1
87.55	0.516593038	SQUIRE	lure	n/a	n/a	n/a	n/a	1
88.067	0.699992338	DELL	lure	n/a	n/a	n/a	n/a	1
88.767	0.500054522	WOODCUTTER	lure	n/a	n/a	n/a	n/a	1
89.267	0.616594396	CORRECTION	lure	n/a	n/a	n/a	n/a	1
89.883	0.749994644	INCOME	lure	n/a	n/a	n/a	n/a	1
90.633	0.34999346	TOWN	lure	n/a	n/a	n/a	n/a	1
90.983	2.01663917	TART	long	n/a	n/a	n/a	n/a	1
93	0.516698465	REVOLUTION	lure	n/a	n/a	n/a	n/a	1
93.517	0.416618058	RERUN	lure	n/a	n/a	n/a	n/a	1
93.933	0.566660276	HIGHWAYMAN	lure	n/a	n/a	n/a	n/a	1
94.5	0.583326022	CHURCH	lure	n/a	n/a	n/a	n/a	1
95.083	0.64999001	STAGECOACH	lure	n/a	n/a	n/a	n/a	1
95.733	0.616655928	MOOD	lure	n/a	n/a	n/a	n/a	1
96.35	0.666660597	HENCHMEN	lure	n/a	n/a	n/a	n/a	1
97.017	0.583384786	DISSENTER	lure	n/a	n/a	n/a	n/a	1
97.6	0.616633545	PIGSKIN	lure	n/a	n/a	n/a	n/a	1
98.217	0.550014541	BARN	lure	n/a	n/a	n/a	n/a	1
98.767	0.433334973	TEXTBOOK	lure	n/a	n/a	n/a	n/a	1
99.2	0.616589836	BUCKET	short	n/a	n/a	n/a	n/a	1
99.817	0.699985325	ORGANIZER	lure	n/a	n/a	n/a	n/a	1
100.517	0.566725253	NONDRIVER	lure	n/a	n/a	n/a	n/a	1
101.083	0.416663173	OVERTONE	lure	n/a	n/a	n/a	n/a	1
101.5	0.766592271	ROADHOUSE	lure	n/a	n/a	n/a	n/a	1
102.267	0.366711596	CARNAGE	lure	n/a	n/a	n/a	n/a	1
102.633	0.6666041	FERTILITY	lure	n/a	n/a	n/a	n/a	1
103.3	0.48332736	REDWOOD	lure	n/a	n/a	n/a	n/a	1
103.783	0.499992342	FUSION	lure	n/a	n/a	n/a	n/a	1
104.283	0.449991926	TIDEWATER	lure	n/a	n/a	n/a	n/a	1
104.733	0.416746661	VOWEL	lure	n/a	n/a	n/a	n/a	1
105.15	0.55000412	TURTLEDOVE	lure	n/a	n/a	n/a	n/a	1
105.7	0.383229074	DUNGEON	lure	n/a	n/a	n/a	n/a	1
106.083	0.366666742	PAINTWORK	lure	n/a	n/a	n/a	n/a	1
106.45	0.516718667	METRO	lure	n/a	n/a	n/a	n/a	1
106.967	0.566597603	ASPEN	lure	n/a	n/a	n/a	n/a	1
107.533	2.016632819	COLUMN	long	n/a	n/a	n/a	n/a	1
109.55	0.699995754	CATACOMB	lure	n/a	n/a	n/a	n/a	1
110.25	0.433326407	VISIBILITY	lure	n/a	n/a	n/a	n/a	1
110.683	0.633371041	BACKGROUND	lure	n/a	n/a	n/a	n/a	1
111.316	0.533273644	STREET	lure	n/a	n/a	n/a	n/a	1
111.85	0.36666626	EUTHANASIA	lure	n/a	n/a	n/a	n/a	1
112.216	0.633319078	STRIKER	lure	n/a	n/a	n/a	n/a	1
112.85	0.700314288	FLATTOP	lure	n/a	n/a	n/a	n/a	1
113.55	0.469563892	MALCONTENT	lure	n/a	n/a	n/a	n/a	1
114.02	0.363497237	TEASPOON	lure	n/a	n/a	n/a	n/a	1
114.383	0.733324996	RESENTMENT	lure	n/a	n/a	n/a	n/a	1
115.116	0.349977791	CONTINUUM	lure	n/a	n/a	n/a	n/a	1
115.466	0.616674134	CITY	short	n/a	n/a	n/a	n/a	1
116.083	0.633263164	BALLPLAYER	lure	n/a	n/a	n/a	n/a	1
116.716	0.716654528	COLUMNIST	lure	n/a	n/a	n/a	n/a	1
117.433	0.53338379	AFTERNOON	lure	n/a	n/a	n/a	n/a	1
117.966	0.383272665	PATERNITY	lure	n/a	n/a	n/a	n/a	1
118.35	0.600041938	GLIMPSE	lure	n/a	n/a	n/a	n/a	1
118.95	0.466609158	WINDOW	lure	n/a	n/a	n/a	n/a	1
119.416	0.750037472	BOYHOOD	lure	n/a	n/a	n/a	n/a	1
120.166	0.516658282	INCISION	lure	n/a	n/a	n/a	n/a	1
120.683	0.766610514	DELIVERY	lure	n/a	n/a	n/a	n/a	1
121.45	0.616712625	LITERACY	lure	n/a	n/a	n/a	n/a	1
122.066	0.799980345	CHESTNUT	lure	n/a	n/a	n/a	n/a	1
122.866	0.416611427	PRETENSE	lure	n/a	n/a	n/a	n/a	1
123.283	0.616656865	EXPERIMENT	lure	n/a	n/a	n/a	n/a	1
123.9	2.01663884	SANDPAPER	long	n/a	n/a	n/a	n/a	1
125.916	0.549994065	SAVAGERY	lure	n/a	n/a	n/a	n/a	1
126.466	0.566657553	BULLOCK	lure	n/a	n/a	n/a	n/a	1
127.033	0.666656913	DETECTIVE	lure	n/a	n/a	n/a	n/a	1
127.7	0.366662916	BEAST	lure	n/a	n/a	n/a	n/a	1
128.066	0.466659383	URBANISM	lure	n/a	n/a	n/a	n/a	1
128.533	0.366662227	TREASURE	lure	n/a	n/a	n/a	n/a	1
128.9	0.4833231	SPINACH	lure	n/a	n/a	n/a	n/a	1
129.383	0.69998821	FOREFATHER	lure	n/a	n/a	n/a	n/a	1
130.083	0.766660285	VANITY	lure	n/a	n/a	n/a	n/a	1
130.849	0.483327293	THEFT	lure	n/a	n/a	n/a	n/a	1
131.333	0.516654414	EYEWASH	lure	n/a	n/a	n/a	n/a	1
131.849	0.616660608	PIANO	short	n/a	n/a	n/a	n/a	1
132.466	0.633321335	GYMNASIUM	lure	n/a	n/a	n/a	n/a	1
133.099	0.399997046	UNDERBRUSH	lure	n/a	n/a	n/a	n/a	1
133.499	0.333328412	PARODY	lure	n/a	n/a	n/a	n/a	1
133.833	0.616654552	PORTFOLIO	lure	n/a	n/a	n/a	n/a	1
134.449	0.449996545	HEADLINE	lure	n/a	n/a	n/a	n/a	1
134.899	0.500080968	PUPPETEER	lure	n/a	n/a	n/a	n/a	1
135.4	0.6165685	CANDIDATE	lure	n/a	n/a	n/a	n/a	1
136.016	0.433325344	WAITER	lure	n/a	n/a	n/a	n/a	1
136.449	0.466664282	TEA	lure	n/a	n/a	n/a	n/a	1
136.916	0.599991681	STORYBOOK	lure	n/a	n/a	n/a	n/a	1
137.516	0.40451825	HOGWASH	lure	n/a	n/a	n/a	n/a	1
137.921	0.512134877	DEFECTION	lure	n/a	n/a	n/a	n/a	1
138.433	0.633423685	IMPOSITION	lure	n/a	n/a	n/a	n/a	1
139.066	0.383228763	DOGHOUSE	lure	n/a	n/a	n/a	n/a	1
139.449	0.433387935	AUTOCRACY	lure	n/a	n/a	n/a	n/a	1
139.883	0.616594569	BRASS	short	n/a	n/a	n/a	n/a	1
140.499	0.516659045	EMBARGO	lure	n/a	n/a	n/a	n/a	1
141.016	0.635474967	STONEWORK	lure	n/a	n/a	n/a	n/a	1
141.651	0.564511013	MIXER	lure	n/a	n/a	n/a	n/a	1
142.216	0.549984408	PHOSPHATE	lure	n/a	n/a	n/a	n/a	1
142.766	0.349996712	FIBER	lure	n/a	n/a	n/a	n/a	1
143.116	0.71665582	STOOL	lure	n/a	n/a	n/a	n/a	1
143.833	0.766657681	VOYAGER	lure	n/a	n/a	n/a	n/a	1
144.599	0.683375881	GHETTO	lure	n/a	n/a	n/a	n/a	1
145.283	0.549939269	THICKET	lure	n/a	n/a	n/a	n/a	1
145.833	0.650053469	DOORKNOB	lure	n/a	n/a	n/a	n/a	1
146.483	0.433268338	PEROXIDE	lure	n/a	n/a	n/a	n/a	1
146.916	0.366700469	COMPLIMENT	lure	n/a	n/a	n/a	n/a	1
147.283	0.316622508	LEDGE	lure	n/a	n/a	n/a	n/a	1
147.599	0.616656062	SPARK	short	n/a	n/a	n/a	n/a	1
148.216	0.383331532	TAB	lure	n/a	n/a	n/a	n/a	1
148.599	0.416719708	LOTION	lure	n/a	n/a	n/a	n/a	1
149.016	0.720882379	MAIDENHOOD	lure	n/a	n/a	n/a	n/a	1
149.737	0.44570872	ROMP	lure	n/a	n/a	n/a	n/a	1
150.183	0.583326352	TENET	lure	n/a	n/a	n/a	n/a	1
150.766	0.7166524	BODYGUARD	lure	n/a	n/a	n/a	n/a	1
151.483	0.649993138	STORYLINE	lure	n/a	n/a	n/a	n/a	1
152.133	0.416654676	SPIRIT	lure	n/a	n/a	n/a	n/a	1
152.549	0.449999062	SHORTCUT	lure	n/a	n/a	n/a	n/a	1
152.999	0.533321263	RETELLING	lure	n/a	n/a	n/a	n/a	1
153.532	0.483330984	PACIFISM	lure	n/a	n/a	n/a	n/a	1
154.016	0.749987903	SPEAKER	lure	n/a	n/a	n/a	n/a	1
154.766	0.416720848	LADDIE	lure	n/a	n/a	n/a	n/a	1
155.183	0.366600941	STY	lure	n/a	n/a	n/a	n/a	1
155.549	0.649986773	BREADFRUIT	lure	n/a	n/a	n/a	n/a	1
156.199	2.016644841	PYRAMID	long	n/a	n/a	n/a	n/a	1
158.216	0.316656908	DOLT	lure	n/a	n/a	n/a	n/a	1
158.532	0.533326158	DIFFICULTY	lure	n/a	n/a	n/a	n/a	1
159.066	0.549993928	GUNFIGHTER	lure	n/a	n/a	n/a	n/a	1
159.616	0.716652614	WARRANTY	lure	n/a	n/a	n/a	n/a	1
160.332	0.583398063	SCHISM	lure	n/a	n/a	n/a	n/a	1
160.916	0.44991933	BEDSTEAD	lure	n/a	n/a	n/a	n/a	1
161.366	0.483330098	KNITWEAR	lure	n/a	n/a	n/a	n/a	1
161.849	0.649992534	TYPESCRIPT	lure	n/a	n/a	n/a	n/a	1
162.499	0.749989762	TRIBALISM	lure	n/a	n/a	n/a	n/a	1
163.249	0.699987661	ROSEBUD	lure	n/a	n/a	n/a	n/a	1
163.949	0.583325972	NUTCRACKER	lure	n/a	n/a	n/a	n/a	1
164.532	2.016640521	SAIL	long	n/a	n/a	n/a	n/a	1
166.549	0.383325806	MANICURE	lure	n/a	n/a	n/a	n/a	1
166.932	0.499993181	COAL	lure	n/a	n/a	n/a	n/a	1
167.432	0.566657862	PSYCHO	lure	n/a	n/a	n/a	n/a	1
167.999	0.61665846	INDULGENCE	lure	n/a	n/a	n/a	n/a	1
168.616	0.583325202	BATHTUB	lure	n/a	n/a	n/a	n/a	1
169.199	0.469584262	LEGALISM	lure	n/a	n/a	n/a	n/a	1
169.669	0.647063643	VISAGE	lure	n/a	n/a	n/a	n/a	1
170.316	0.750028488	RELIANCE	lure	n/a	n/a	n/a	n/a	1
171.066	0.383295143	BIGOT	lure	n/a	n/a	n/a	n/a	1
171.449	0.383322736	FLEA	lure	n/a	n/a	n/a	n/a	1
171.832	0.683329094	CRAYFISH	lure	n/a	n/a	n/a	n/a	1
172.516	0.400040946	TESTER	lure	n/a	n/a	n/a	n/a	1
172.916	2.016583239	CLUB	long	n/a	n/a	n/a	n/a	1
174.932	0.566660149	WRIST	lure	n/a	n/a	n/a	n/a	1
175.499	0.700048403	CAPITAL	lure	n/a	n/a	n/a	n/a	1
176.199	0.483264545	BALLOONIST	lure	n/a	n/a	n/a	n/a	1
176.682	0.449997571	HOBBY	lure	n/a	n/a	n/a	n/a	1
177.132	0.366763057	COMPLETION	lure	n/a	n/a	n/a	n/a	1
177.499	0.366626551	TWEEZER	lure	n/a	n/a	n/a	n/a	1
177.866	0.633253047	KIDNAPPER	lure	n/a	n/a	n/a	n/a	1
178.499	0.533330104	THEW	lure	n/a	n/a	n/a	n/a	1
179.032	0.666679138	LAVA	lure	n/a	n/a	n/a	n/a	1
179.699	0.399973029	SUMMARY	lure	n/a	n/a	n/a	n/a	1
180.099	0.316704446	KILOMETER	lure	n/a	n/a	n/a	n/a	1
180.415	0.666612186	URGENCY	lure	n/a	n/a	n/a	n/a	1
181.082	0.616656627	BELT	short	n/a	n/a	n/a	n/a	1
181.699	0.516663264	NUISANCE	lure	n/a	n/a	n/a	n/a	1
182.215	0.333327359	DICTION	lure	n/a	n/a	n/a	n/a	1
182.549	0.449996381	GAG	lure	n/a	n/a	n/a	n/a	1
182.999	0.716654289	FLOATER	lure	n/a	n/a	n/a	n/a	1
183.715	0.499990139	CLOAKROOM	lure	n/a	n/a	n/a	n/a	1
184.215	0.366666413	BASKETBALL	lure	n/a	n/a	n/a	n/a	1
184.582	0.566705935	PARKLAND	lure	n/a	n/a	n/a	n/a	1
185.149	0.516611301	WINE	lure	n/a	n/a	n/a	n/a	1
185.665	0.333329148	PIGMENT	lure	n/a	n/a	n/a	n/a	1
185.999	0.499991177	NICHE	lure	n/a	n/a	n/a	n/a	1
186.499	0.666655997	EAGLE	lure	n/a	n/a	n/a	n/a	1
187.165	0.616658992	SURGEON	lure	n/a	n/a	n/a	n/a	1
187.782	0.333384465	BELLMAN	lure	n/a	n/a	n/a	n/a	1
188.115	0.349940306	ASSESSMENT	lure	n/a	n/a	n/a	n/a	1
188.465	0.483323733	HANDMAIDEN	lure	n/a	n/a	n/a	n/a	1
188.949	0.716658701	CANISTER	lure	n/a	n/a	n/a	n/a	1
189.665	2.016637497	FOAM	long	n/a	n/a	n/a	n/a	1
191.682	0.599990218	CATWALK	lure	n/a	n/a	n/a	n/a	1
192.282	0.349991101	CHARIOT	lure	n/a	n/a	n/a	n/a	1
192.632	0.333329884	GRANDSON	lure	n/a	n/a	n/a	n/a	1
192.965	0.400054943	SEXTON	lure	n/a	n/a	n/a	n/a	1
193.365	0.733266903	DISHWASHER	lure	n/a	n/a	n/a	n/a	1
194.099	0.566657002	BOXWOOD	lure	n/a	n/a	n/a	n/a	1
194.665	0.533319845	PICKER	lure	n/a	n/a	n/a	n/a	1
195.199	0.683326716	LUMINARY	lure	n/a	n/a	n/a	n/a	1
195.882	0.366666707	CERTAINTY	lure	n/a	n/a	n/a	n/a	1
196.249	0.699983182	FARCE	lure	n/a	n/a	n/a	n/a	1
196.949	0.549995353	ADHERENCE	lure	n/a	n/a	n/a	n/a	1
197.499	0.616657235	TORQUE	lure	n/a	n/a	n/a	n/a	1
198.115	1.016701059	BLUEBERRY	fruit	n/a	946	2	2	1
199.132	0.416607414	SANITY	lure	n/a	n/a	n/a	n/a	1
199.548	0.483332095	AMULET	lure	n/a	n/a	n/a	n/a	1
200.032	0.416659938	STATEMENT	lure	n/a	n/a	n/a	n/a	1
200.448	0.483327743	RIBBING	lure	n/a	n/a	n/a	n/a	1
200.932	0.44999396	INERTIA	lure	n/a	n/a	n/a	n/a	1
201.382	0.483326503	LONER	lure	n/a	n/a	n/a	n/a	1
201.865	0.466661057	RACQUET	lure	n/a	n/a	n/a	n/a	1
202.332	0.733322374	GRUB	lure	n/a	n/a	n/a	n/a	1
203.065	0.316659058	INSERTION	lure	n/a	n/a	n/a	n/a	1
203.382	0.46665665	ECLAIR	lure	n/a	n/a	n/a	n/a	1
203.848	0.366726467	VIGILANCE	lure	n/a	n/a	n/a	n/a	1
204.215	0.333268872	MINK	lure	n/a	n/a	n/a	n/a	1
204.548	0.466658939	BLOWHOLE	lure	n/a	n/a	n/a	n/a	1
205.015	0.416660948	BODYWORK	lure	n/a	n/a	n/a	n/a	1
205.432	0.466655899	PERIWINKLE	lure	n/a	n/a	n/a	n/a	1
205.898	0.616663322	COCA	lure	n/a	n/a	n/a	n/a	1
206.515	0.616658746	CARAVAN	short	n/a	n/a	n/a	n/a	1
207.132	0.583318533	BETRAYAL	lure	n/a	n/a	n/a	n/a	1
207.715	0.666663038	GOVERNMENT	lure	n/a	n/a	n/a	n/a	1
208.382	0.383326595	CLICHE	lure	n/a	n/a	n/a	n/a	1
208.765	0.41665875	WATERSIDE	lure	n/a	n/a	n/a	n/a	1
209.182	0.63338658	GUY	lure	n/a	n/a	n/a	n/a	1
209.815	0.416652339	VINYL	lure	n/a	n/a	n/a	n/a	1
210.232	0.7166037	GYM	lure	n/a	n/a	n/a	n/a	1
210.948	0.466657178	NOVA	lure	n/a	n/a	n/a	n/a	1
211.415	0.583388199	OPPOSITION	lure	n/a	n/a	n/a	n/a	1
211.998	0.416601124	MASOCHIST	lure	n/a	n/a	n/a	n/a	1
212.415	0.533364736	MAMMAL	lure	n/a	n/a	n/a	n/a	1
212.948	0.399955601	CONDENSER	lure	n/a	n/a	n/a	n/a	1
213.348	0.69998426	BILLBOARD	lure	n/a	n/a	n/a	n/a	1
214.048	0.666659852	TEACHER	lure	n/a	n/a	n/a	n/a	1
214.715	0.750039937	BURIAL	lure	n/a	n/a	n/a	n/a	1
215.465	0.616606889	ASHES	short	n/a	n/a	n/a	n/a	1
216.082	0.549988282	DEACON	lure	n/a	n/a	n/a	n/a	1
216.632	0.599993407	ETHYL	lure	n/a	n/a	n/a	n/a	1
217.232	0.633328166	WASHER	lure	n/a	n/a	n/a	n/a	1
217.865	0.4864369	DEDICATION	lure	n/a	n/a	n/a	n/a	1
218.351	0.69687974	MEAT	lure	n/a	n/a	n/a	n/a	1
219.048	0.333326558	EARSHOT	lure	n/a	n/a	n/a	n/a	1
219.382	0.483324735	FOREARM	lure	n/a	n/a	n/a	n/a	1
219.865	0.649992759	NOONTIME	lure	n/a	n/a	n/a	n/a	1
220.515	0.516658683	VULGARITY	lure	n/a	n/a	n/a	n/a	1
221.032	0.71665974	GALLANTRY	lure	n/a	n/a	n/a	n/a	1
221.748	0.534623093	CRUDE	lure	n/a	n/a	n/a	n/a	1
222.283	0.698692578	HIGHSCHOOL	lure	n/a	n/a	n/a	n/a	1
222.982	0.554667358	IMPACT	lure	n/a	n/a	n/a	n/a	1
223.536	0.345318958	THING	lure	n/a	n/a	n/a	n/a	1
223.881	0.683325049	PIE	lure	n/a	n/a	n/a	n/a	1
224.565	0.533325607	MOTORIST	lure	n/a	n/a	n/a	n/a	1
225.098	0.383320255	IMPATIENCE	lure	n/a	n/a	n/a	n/a	1
225.481	0.449997466	SAKE	lure	n/a	n/a	n/a	n/a	1
225.931	0.383329397	LYE	lure	n/a	n/a	n/a	n/a	1
226.315	0.316661522	BACKSIDE	lure	n/a	n/a	n/a	n/a	1
226.631	n/a	WRISTBAND	lure	n/a	n/a	n/a	n/a	1
238.015	0.349997957	MALLARD	lure	n/a	n/a	n/a	n/a	1
238.365	0.616657993	CONTAINER	lure	n/a	n/a	n/a	n/a	1
238.981	0.383326743	LEAGUE	lure	n/a	n/a	n/a	n/a	1
239.365	0.449995334	ENDOWMENT	lure	n/a	n/a	n/a	n/a	1
239.815	0.48332344	INDICATION	lure	n/a	n/a	n/a	n/a	1
240.298	0.651532569	VIDEOTAPE	lure	n/a	n/a	n/a	n/a	1
240.949	0.481783769	BROTHEL	lure	n/a	n/a	n/a	n/a	1
241.431	2.016641252	CLUB	long	n/a	n/a	n/a	n/a	1
243.448	0.75004749	COLLATERAL	lure	n/a	n/a	n/a	n/a	1
244.198	0.469561345	MANTLE	lure	n/a	n/a	n/a	n/a	1
244.667	0.397028037	CIDER	lure	n/a	n/a	n/a	n/a	1
245.065	0.533329949	LONGBOW	lure	n/a	n/a	n/a	n/a	1
245.598	0.36666315	SANCTUARY	lure	n/a	n/a	n/a	n/a	1
245.965	0.516657196	RIB	lure	n/a	n/a	n/a	n/a	1
246.481	0.683321828	EMULATION	lure	n/a	n/a	n/a	n/a	1
247.164	0.416664235	OWNSELF	lure	n/a	n/a	n/a	n/a	1
247.581	0.46665713	MADMEN	lure	n/a	n/a	n/a	n/a	1
248.048	0.566660408	PUBLICITY	lure	n/a	n/a	n/a	n/a	1
248.614	0.449994855	REVEREND	lure	n/a	n/a	n/a	n/a	1
249.064	0.783379538	ABSENCE	lure	n/a	n/a	n/a	n/a	1
249.848	0.616600192	PIANO	short	n/a	n/a	n/a	n/a	1
250.464	0.516717156	BESTSELLER	lure	n/a	n/a	n/a	n/a	1
250.981	0.74993054	SIDEBOARD	lure	n/a	n/a	n/a	n/a	1
251.731	0.316662521	TIBIA	lure	n/a	n/a	n/a	n/a	1
252.048	0.699984088	AFTERMATH	lure	n/a	n/a	n/a	n/a	1
252.748	0.733329955	MILESTONE	lure	n/a	n/a	n/a	n/a	1
253.481	0.383325956	SHRIMP	lure	n/a	n/a	n/a	n/a	1
253.864	0.449993143	HEARSAY	lure	n/a	n/a	n/a	n/a	1
254.314	0.483329084	OPIUM	lure	n/a	n/a	n/a	n/a	1
254.798	0.516655776	CHAIRMEN	lure	n/a	n/a	n/a	n/a	1
255.314	0.583322099	PACESETTER	lure	n/a	n/a	n/a	n/a	1
255.898	0.516665332	LIKELIHOOD	lure	n/a	n/a	n/a	n/a	1
256.414	0.483324513	GEn/aE	lure	n/a	n/a	n/a	n/a	1
256.898	0.666700691	INDICATOR	lure	n/a	n/a	n/a	n/a	1
257.564	0.349951381	CANNONBALL	lure	n/a	n/a	n/a	n/a	1
257.914	2.016638448	SAIL	long	n/a	n/a	n/a	n/a	1
259.931	0.349994072	BEANSTALK	lure	n/a	n/a	n/a	n/a	1
260.281	0.416662299	SHOWBOAT	lure	n/a	n/a	n/a	n/a	1
260.698	0.750043161	THRIFT	lure	n/a	n/a	n/a	n/a	1
261.448	0.349987844	WEALTH	lure	n/a	n/a	n/a	n/a	1
261.798	0.349948233	JEOPARDY	lure	n/a	n/a	n/a	n/a	1
262.148	0.733318557	PUNCHER	lure	n/a	n/a	n/a	n/a	1
262.881	0.38333144	RENOWN	lure	n/a	n/a	n/a	n/a	1
263.264	0.349992395	SPUD	lure	n/a	n/a	n/a	n/a	1
263.614	0.349995918	NARRATOR	lure	n/a	n/a	n/a	n/a	1
263.964	0.400100119	CHOPPER	lure	n/a	n/a	n/a	n/a	1
264.364	0.616553575	MAXIMUM	lure	n/a	n/a	n/a	n/a	1
264.981	0.416660314	BEEFCAKE	lure	n/a	n/a	n/a	n/a	1
265.398	0.366661618	RAINWATER	lure	n/a	n/a	n/a	n/a	1
265.764	0.650095008	BELT	short	n/a	n/a	n/a	n/a	1
266.414	0.616627179	FAIRGROUND	lure	n/a	n/a	n/a	n/a	1
267.031	0.549917852	CAPACITY	lure	n/a	n/a	n/a	n/a	1
267.581	0.5499901	PETAL	lure	n/a	n/a	n/a	n/a	1
268.131	0.752404776	CRAFTSMEN	lure	n/a	n/a	n/a	n/a	1
268.883	0.432562811	INTELLECT	lure	n/a	n/a	n/a	n/a	1
269.316	0.752570665	TANTRUM	lure	n/a	n/a	n/a	n/a	1
270.068	0.629096801	KNOCKDOWN	lure	n/a	n/a	n/a	n/a	1
270.697	0.433370215	JAY	lure	n/a	n/a	n/a	n/a	1
271.131	0.449946918	APEX	lure	n/a	n/a	n/a	n/a	1
271.581	0.616657715	DAYBED	lure	n/a	n/a	n/a	n/a	1
272.197	0.383327147	MISHAP	lure	n/a	n/a	n/a	n/a	1
272.581	0.666658661	COMMUNE	lure	n/a	n/a	n/a	n/a	1
273.247	0.749990284	SCUT	lure	n/a	n/a	n/a	n/a	1
273.997	0.583321932	BREADCRUMB	lure	n/a	n/a	n/a	n/a	1
274.581	0.616657575	ASHES	short	n/a	n/a	n/a	n/a	1
275.197	0.599995227	FACILITY	lure	n/a	n/a	n/a	n/a	1
275.797	0.49998979	ARROGANCE	lure	n/a	n/a	n/a	n/a	1
276.297	0.466660957	PIKE	lure	n/a	n/a	n/a	n/a	1
276.764	0.449994855	TUNNEL	lure	n/a	n/a	n/a	n/a	1
277.214	0.516656121	MOTIF	lure	n/a	n/a	n/a	n/a	1
277.731	0.483328753	FINCH	lure	n/a	n/a	n/a	n/a	1
278.214	0.616658205	HEADROOM	lure	n/a	n/a	n/a	n/a	1
278.831	0.533327088	AMBASSADOR	lure	n/a	n/a	n/a	n/a	1
279.364	0.399993725	RENEGADE	lure	n/a	n/a	n/a	n/a	1
279.764	0.584950882	LIBERALISM	lure	n/a	n/a	n/a	n/a	1
280.349	0.315031506	TRIPLET	lure	n/a	n/a	n/a	n/a	1
280.664	0.499996225	BEEFEATER	lure	n/a	n/a	n/a	n/a	1
281.164	0.399997206	SPANNER	lure	n/a	n/a	n/a	n/a	1
281.564	0.366658498	FIREWOOD	lure	n/a	n/a	n/a	n/a	1
281.931	0.516719607	WALLPAPER	lure	n/a	n/a	n/a	n/a	1
282.447	2.016581942	FOAM	long	n/a	n/a	n/a	n/a	1
284.464	0.416657567	RESPITE	lure	n/a	n/a	n/a	n/a	1
284.881	0.616655613	QUILT	lure	n/a	n/a	n/a	n/a	1
285.497	0.36666229	BUTANE	lure	n/a	n/a	n/a	n/a	1
285.864	0.383324209	BULL	lure	n/a	n/a	n/a	n/a	1
286.247	0.316779699	NARCISSIST	lure	n/a	n/a	n/a	n/a	1
286.564	0.633208826	CONCESSION	lure	n/a	n/a	n/a	n/a	1
287.197	0.666655348	KING	lure	n/a	n/a	n/a	n/a	1
287.864	0.633377407	VERTEX	lure	n/a	n/a	n/a	n/a	1
288.497	0.766676469	SCARCITY	lure	n/a	n/a	n/a	n/a	1
289.264	0.71667841	CLERGYMEN	lure	n/a	n/a	n/a	n/a	1
289.981	0.449898509	PAIL	lure	n/a	n/a	n/a	n/a	1
290.431	1.016651653	ELDERBERRY	fruit	n/a	886	2	2	1
291.447	0.500031212	PARTRIDGE	lure	n/a	n/a	n/a	n/a	1
291.947	0.533290542	HAMSTER	lure	n/a	n/a	n/a	n/a	1
292.481	0.533371108	CUCUMBER	lure	n/a	n/a	n/a	n/a	1
293.014	0.666611281	BALLROOM	lure	n/a	n/a	n/a	n/a	1
293.68	0.500058763	LAWSUIT	lure	n/a	n/a	n/a	n/a	1
294.181	0.616587893	OBJECT	lure	n/a	n/a	n/a	n/a	1
294.797	0.399996723	MIDST	lure	n/a	n/a	n/a	n/a	1
295.197	0.583320277	POCKETBOOK	lure	n/a	n/a	n/a	n/a	1
295.78	0.416667139	BOYFRIEND	lure	n/a	n/a	n/a	n/a	1
296.197	0.466659972	MASOn/aY	lure	n/a	n/a	n/a	n/a	1
296.664	0.633319972	ARROW	lure	n/a	n/a	n/a	n/a	1
297.297	0.517154909	SPITFIRE	lure	n/a	n/a	n/a	n/a	1
297.814	0.532835113	CLOSEUP	lure	n/a	n/a	n/a	n/a	1
298.347	1.016646561	CHERRY	fruit	n/a	810	2	2	1
299.364	0.766661707	IGLOO	lure	n/a	n/a	n/a	n/a	1
300.13	0.766655254	TOENAIL	lure	n/a	n/a	n/a	n/a	1
300.897	0.516657499	STUMPER	lure	n/a	n/a	n/a	n/a	1
301.414	0.349993045	EYEPIECE	lure	n/a	n/a	n/a	n/a	1
301.764	0.416659903	ANIMAL	lure	n/a	n/a	n/a	n/a	1
302.18	0.583326839	AFTERSHAVE	lure	n/a	n/a	n/a	n/a	1
302.764	0.549992363	SHAMMY	lure	n/a	n/a	n/a	n/a	1
303.314	0.383328931	FOLKLORE	lure	n/a	n/a	n/a	n/a	1
303.697	0.583326025	DOCKET	lure	n/a	n/a	n/a	n/a	1
304.28	0.350052456	POTHOLE	lure	n/a	n/a	n/a	n/a	1
304.63	0.333314095	Un/aEST	lure	n/a	n/a	n/a	n/a	1
304.964	0.633335469	EARL	lure	n/a	n/a	n/a	n/a	1
305.597	0.383319172	CEREBELLUM	lure	n/a	n/a	n/a	n/a	1
305.98	0.366702919	DRAPERY	lure	n/a	n/a	n/a	n/a	1
306.347	1.016624606	LEMON	fruit	n/a	n/a	n/a	2	0
307.364	0.6999284	SNOWSHOE	lure	n/a	97	2	n/a	0
308.064	0.566662942	PLATOON	lure	n/a	n/a	n/a	n/a	1
308.63	0.466656699	OBOE	lure	n/a	n/a	n/a	n/a	1
309.097	0.733325106	SOLUTION	lure	n/a	n/a	n/a	n/a	1
309.83	0.568348124	DANDRUFF	lure	n/a	n/a	n/a	n/a	1
310.399	0.731632925	SEMICOLON	lure	n/a	n/a	n/a	n/a	1
311.13	0.483325279	APPETITE	lure	n/a	n/a	n/a	n/a	1
311.614	0.783378033	MACKEREL	lure	n/a	n/a	n/a	n/a	1
312.397	0.550000406	MEMBRANE	lure	n/a	n/a	n/a	n/a	1
312.947	0.399929319	EPIGRAPH	lure	n/a	n/a	n/a	n/a	1
313.347	0.366661879	SAGA	lure	n/a	n/a	n/a	n/a	1
313.714	0.499988109	HOVERCRAFT	lure	n/a	n/a	n/a	n/a	1
314.214	0.583330185	OVERTURE	lure	n/a	n/a	n/a	n/a	1
314.797	1.016646412	RASPBERRY	fruit	n/a	776	2	2	1
315.813	0.716660401	DIGRESSION	lure	n/a	n/a	n/a	n/a	1
316.53	0.733322909	TIDBIT	lure	n/a	n/a	n/a	n/a	1
317.263	0.433433724	RIVER	lure	n/a	n/a	n/a	n/a	1
317.697	0.683217741	DEBT	lure	n/a	n/a	n/a	n/a	1
318.38	0.466722193	VOLLEYBALL	lure	n/a	n/a	n/a	n/a	1
318.847	0.499929765	CHASM	lure	n/a	n/a	n/a	n/a	1
319.347	0.716657621	MAGMA	lure	n/a	n/a	n/a	n/a	1
320.063	0.683396425	INITIATIVE	lure	n/a	n/a	n/a	n/a	1
320.747	0.499981608	CAVERN	lure	n/a	n/a	n/a	n/a	1
321.247	0.566633297	CRANIUM	lure	n/a	n/a	n/a	n/a	1
321.813	0.616690531	REPEATER	lure	n/a	n/a	n/a	n/a	1
322.43	0.766589336	GASLIGHT	lure	n/a	n/a	n/a	n/a	1
323.197	1.016646837	WATERMELON	fruit	n/a	n/a	n/a	2	0
324.213	0.749992196	INLET	lure	n/a	n/a	n/a	n/a	1
324.963	0.433325679	TRACTION	lure	n/a	n/a	n/a	n/a	1
325.397	0.566655407	EEL	lure	n/a	n/a	n/a	n/a	1
325.963	0.649996373	WITCHCRAFT	lure	n/a	n/a	n/a	n/a	1
326.613	0.666698127	GRIEF	lure	n/a	n/a	n/a	n/a	1
327.28	0.466612258	VASE	lure	n/a	n/a	n/a	n/a	1
327.747	0.383331057	TRAINMAN	lure	n/a	n/a	n/a	n/a	1
328.13	0.399996439	CRUCIBLE	lure	n/a	n/a	n/a	n/a	1
328.53	0.399992901	ION	lure	n/a	n/a	n/a	n/a	1
328.93	0.503639796	BLACKBOARD	lure	n/a	n/a	n/a	n/a	1
329.434	0.563012435	MILITARISM	lure	n/a	n/a	n/a	n/a	1
329.997	0.350040519	LAMP	lure	n/a	n/a	n/a	n/a	1
330.347	0.716609477	PINTO	lure	n/a	n/a	n/a	n/a	1
331.063	0.316658636	NODE	lure	n/a	n/a	n/a	n/a	1
331.38	2.016643091	TART	long	n/a	n/a	n/a	n/a	1
333.397	0.666656992	LINEMAN	lure	n/a	n/a	n/a	n/a	1
334.063	0.516713162	WORKBOOK	lure	n/a	n/a	n/a	n/a	1
334.58	0.316707927	SOMEONE	lure	n/a	n/a	n/a	n/a	1
334.897	0.683221429	MONOGAMY	lure	n/a	n/a	n/a	n/a	1
335.58	0.3999958	BINDER	lure	n/a	n/a	n/a	n/a	1
335.98	0.383327525	REACTIVITY	lure	n/a	n/a	n/a	n/a	1
336.363	0.716658583	COLOGNE	lure	n/a	n/a	n/a	n/a	1
337.08	0.349989318	THICKENER	lure	n/a	n/a	n/a	n/a	1
337.43	0.683371789	PRIVILEGE	lure	n/a	n/a	n/a	n/a	1
338.113	0.666607678	CUTAWAY	lure	n/a	n/a	n/a	n/a	1
338.78	0.516662724	SHOOTER	lure	n/a	n/a	n/a	n/a	1
339.296	0.616660913	CARAVAN	short	n/a	n/a	n/a	n/a	1
339.913	0.533326346	REVIEWER	lure	n/a	n/a	n/a	n/a	1
340.446	0.549985377	FESTIVAL	lure	n/a	n/a	n/a	n/a	1
340.996	0.633454985	INHABITANT	lure	n/a	n/a	n/a	n/a	1
341.63	0.516576838	OUNCE	lure	n/a	n/a	n/a	n/a	1
342.147	0.499948219	MESSAGE	lure	n/a	n/a	n/a	n/a	1
342.646	0.41911361	SHORTCAKE	lure	n/a	n/a	n/a	n/a	1
343.066	0.515565358	SIBLING	lure	n/a	n/a	n/a	n/a	1
343.581	0.398761809	PEEPER	lure	n/a	n/a	n/a	n/a	1
343.98	0.716565205	WEEKEND	lure	n/a	n/a	n/a	n/a	1
344.696	0.366624753	PROPENSITY	lure	n/a	n/a	n/a	n/a	1
345.063	0.666726965	ORATION	lure	n/a	n/a	n/a	n/a	1
345.73	0.43326001	INDENTURE	lure	n/a	n/a	n/a	n/a	1
346.163	0.716656052	DISUNION	lure	n/a	n/a	n/a	n/a	1
346.88	0.399993314	BOILER	lure	n/a	n/a	n/a	n/a	1
347.28	2.016636079	COUNCIL	long	n/a	n/a	n/a	n/a	1
349.296	0.433330364	ICECUBE	lure	n/a	n/a	n/a	n/a	1
349.73	0.399992187	COMPLICITY	lure	n/a	n/a	n/a	n/a	1
350.13	0.716658914	DENIAL	lure	n/a	n/a	n/a	n/a	1
350.846	0.633321552	LATECOMER	lure	n/a	n/a	n/a	n/a	1
351.48	0.599993505	DECATHLON	lure	n/a	n/a	n/a	n/a	1
352.08	0.316710105	BEAKER	lure	n/a	n/a	n/a	n/a	1
352.396	0.416611953	NORMALCY	lure	n/a	n/a	n/a	n/a	1
352.813	0.566657812	CROWBAR	lure	n/a	n/a	n/a	n/a	1
353.38	0.433323221	COMPOSURE	lure	n/a	n/a	n/a	n/a	1
353.813	0.549999682	SPORTSMAN	lure	n/a	n/a	n/a	n/a	1
354.363	0.633323607	RACEHORSE	lure	n/a	n/a	n/a	n/a	1
354.996	0.416658269	CHIMNEY	lure	n/a	n/a	n/a	n/a	1
355.413	2.016639234	RIDGE	long	n/a	n/a	n/a	n/a	1
357.43	0.566657372	HARPIST	lure	n/a	n/a	n/a	n/a	1
357.996	0.683322107	BASEBALL	lure	n/a	n/a	n/a	n/a	1
358.68	0.366659889	METEOR	lure	n/a	n/a	n/a	n/a	1
359.046	0.566660724	PUPPY	lure	n/a	n/a	n/a	n/a	1
359.613	0.383327944	SETTLEMENT	lure	n/a	n/a	n/a	n/a	1
359.996	0.416659928	TALC	lure	n/a	n/a	n/a	n/a	1
360.413	0.653389329	FIDDLER	lure	n/a	n/a	n/a	n/a	1
361.066	0.746592644	INQUIRER	lure	n/a	n/a	n/a	n/a	1
361.813	0.449994614	KILOWATT	lure	n/a	n/a	n/a	n/a	1
362.263	0.316659524	PANEL	lure	n/a	n/a	n/a	n/a	1
362.579	0.633325803	ENDURANCE	lure	n/a	n/a	n/a	n/a	1
363.213	0.683322899	GRADIENT	lure	n/a	n/a	n/a	n/a	1
363.896	0.616656416	BUCKET	short	n/a	n/a	n/a	n/a	1
364.513	0.633326984	AFFLUENCE	lure	n/a	n/a	n/a	n/a	1
365.146	0.735827146	TECHNIQUE	lure	n/a	n/a	n/a	n/a	1
365.882	0.51415548	DRUMSTICK	lure	n/a	n/a	n/a	n/a	1
366.396	0.499991172	FEEDER	lure	n/a	n/a	n/a	n/a	1
366.896	0.483325478	DUCKLING	lure	n/a	n/a	n/a	n/a	1
367.379	0.549992466	SOCIALISM	lure	n/a	n/a	n/a	n/a	1
367.929	0.533325066	EASEMENT	lure	n/a	n/a	n/a	n/a	1
368.463	0.36665843	OATH	lure	n/a	n/a	n/a	n/a	1
368.829	0.549993838	FOREMAN	lure	n/a	n/a	n/a	n/a	1
369.379	0.749991711	SCREENPLAY	lure	n/a	n/a	n/a	n/a	1
370.129	0.633320981	BOOSTER	lure	n/a	n/a	n/a	n/a	1
370.763	0.499998087	BRIBERY	lure	n/a	n/a	n/a	n/a	1
371.263	0.766654574	OXEN	lure	n/a	n/a	n/a	n/a	1
372.029	0.36666341	HEARTBEAT	lure	n/a	n/a	n/a	n/a	1
372.396	2.016642315	SANDPAPER	long	n/a	n/a	n/a	n/a	1
374.413	0.449985764	PARTICIPLE	lure	n/a	n/a	n/a	n/a	1
374.863	0.633320923	SKEPTICISM	lure	n/a	n/a	n/a	n/a	1
375.496	0.450044436	UPHOLSTERY	lure	n/a	n/a	n/a	n/a	1
375.946	0.566615825	RAG	lure	n/a	n/a	n/a	n/a	1
376.513	0.433360797	SILO	lure	n/a	n/a	n/a	n/a	1
376.946	0.716617543	WARE	lure	n/a	n/a	n/a	n/a	1
377.663	0.566659734	TOASTER	lure	n/a	n/a	n/a	n/a	1
378.229	0.34999171	GUMSHOE	lure	n/a	n/a	n/a	n/a	1
378.579	0.550086648	SEGMENT	lure	n/a	n/a	n/a	n/a	1
379.129	0.699901232	EVERYONE	lure	n/a	n/a	n/a	n/a	1
379.829	0.616653944	STUDIO	lure	n/a	n/a	n/a	n/a	1
380.446	0.616660966	CITY	short	n/a	n/a	n/a	n/a	1
381.063	0.333327333	BRIMSTONE	lure	n/a	n/a	n/a	n/a	1
381.396	0.633318667	SIMPLETON	lure	n/a	n/a	n/a	n/a	1
382.029	0.316668096	SCRUFF	lure	n/a	n/a	n/a	n/a	1
382.346	0.399991555	BASEBOARD	lure	n/a	n/a	n/a	n/a	1
382.746	0.333392426	STEIN	lure	n/a	n/a	n/a	n/a	1
383.079	0.516596632	POKER	lure	n/a	n/a	n/a	n/a	1
383.596	0.449998837	ORCHESTRA	lure	n/a	n/a	n/a	n/a	1
384.046	0.616647558	RUMP	lure	n/a	n/a	n/a	n/a	1
384.663	0.666658358	VISA	lure	n/a	n/a	n/a	n/a	1
385.329	0.633326294	FORTUNE	lure	n/a	n/a	n/a	n/a	1
385.962	0.583321895	PHYSICIAN	lure	n/a	n/a	n/a	n/a	1
386.546	0.333333019	SHORTY	lure	n/a	n/a	n/a	n/a	1
386.879	0.566657128	AUTISM	lure	n/a	n/a	n/a	n/a	1
387.446	0.733349101	DISMISSAL	lure	n/a	n/a	n/a	n/a	1
388.179	0.633348001	INDENT	lure	n/a	n/a	n/a	n/a	1
388.813	2.052438169	RACKET	long	n/a	n/a	n/a	n/a	1
390.865	0.664141641	CASINO	lure	n/a	n/a	n/a	n/a	1
391.529	0.433328612	COERCION	lure	n/a	n/a	n/a	n/a	1
391.962	0.499985367	HACKSAW	lure	n/a	n/a	n/a	n/a	1
392.462	0.38333039	PROTRACTOR	lure	n/a	n/a	n/a	n/a	1
392.846	0.383327615	CONTESTANT	lure	n/a	n/a	n/a	n/a	1
393.229	0.566661481	DUKE	lure	n/a	n/a	n/a	n/a	1
393.796	0.399998691	PREFERENCE	lure	n/a	n/a	n/a	n/a	1
394.196	0.616656209	DEAN	lure	n/a	n/a	n/a	n/a	1
394.812	0.349992884	DISCORD	lure	n/a	n/a	n/a	n/a	1
395.162	0.416658305	COMMITTAL	lure	n/a	n/a	n/a	n/a	1
395.579	0.349997126	GESTALT	lure	n/a	n/a	n/a	n/a	1
395.929	0.516656359	IMPOSTOR	lure	n/a	n/a	n/a	n/a	1
396.446	0.699990884	REIN	lure	n/a	n/a	n/a	n/a	1
397.146	0.44999707	SIDESHOW	lure	n/a	n/a	n/a	n/a	1
397.596	0.616661756	MATTER	short	n/a	n/a	n/a	n/a	1
398.212	0.649987431	TAXICAB	lure	n/a	n/a	n/a	n/a	1
398.862	0.449990592	COMMERCE	lure	n/a	n/a	n/a	n/a	1
399.312	0.683327766	NIGHTGOWN	lure	n/a	n/a	n/a	n/a	1
399.996	0.483320944	DIOXIDE	lure	n/a	n/a	n/a	n/a	1
400.479	0.69999239	LAYOFF	lure	n/a	n/a	n/a	n/a	1
401.179	0.616657927	BIRTHRATE	lure	n/a	n/a	n/a	n/a	1
401.796	0.46666058	VOODOO	lure	n/a	n/a	n/a	n/a	1
402.262	0.533321053	EQUIPMENT	lure	n/a	n/a	n/a	n/a	1
402.796	0.499996951	VACANCY	lure	n/a	n/a	n/a	n/a	1
403.296	0.366660563	WHIMSY	lure	n/a	n/a	n/a	n/a	1
403.662	0.399989037	MERCY	lure	n/a	n/a	n/a	n/a	1
404.062	0.416668138	ENCLOSURE	lure	n/a	n/a	n/a	n/a	1
404.479	0.616657307	PUMA	lure	n/a	n/a	n/a	n/a	1
405.096	0.754118119	DISCIPLE	lure	n/a	n/a	n/a	n/a	1
405.85	0.729192263	MARGIN	lure	n/a	n/a	n/a	n/a	1
406.579	0.616655342	BRASS	short	n/a	n/a	n/a	n/a	1
407.196	0.583327238	RADICALISM	lure	n/a	n/a	n/a	n/a	1
407.779	0.683322222	DESCENDANT	lure	n/a	n/a	n/a	n/a	1
408.462	0.483329095	STICKER	lure	n/a	n/a	n/a	n/a	1
408.946	0.571075929	SUBSOIL	lure	n/a	n/a	n/a	n/a	1
409.517	0.64756996	MOTORCAR	lure	n/a	n/a	n/a	n/a	1
410.164	0.564722552	FORTITUDE	lure	n/a	n/a	n/a	n/a	1
410.729	0.533262514	PEANUT	lure	n/a	n/a	n/a	n/a	1
411.262	0.433330707	ROOFTOP	lure	n/a	n/a	n/a	n/a	1
411.695	0.499990888	LOGGER	lure	n/a	n/a	n/a	n/a	1
412.195	0.683319824	COMMANDO	lure	n/a	n/a	n/a	n/a	1
412.879	0.366665451	CAPACITOR	lure	n/a	n/a	n/a	n/a	1
413.245	0.501610312	BRUNT	lure	n/a	n/a	n/a	n/a	1
413.747	0.415046223	SUNSTROKE	lure	n/a	n/a	n/a	n/a	1
414.162	0.449990629	ADOBE	lure	n/a	n/a	n/a	n/a	1
414.612	0.616712826	NOVEL	short	n/a	n/a	n/a	n/a	1
415.229	0.716598763	DANDELION	lure	n/a	n/a	n/a	n/a	1
415.945	0.416661035	ABSOLUTION	lure	n/a	n/a	n/a	n/a	1
416.362	0.399995889	MODERNISM	lure	n/a	n/a	n/a	n/a	1
416.762	0.616654796	BOOKSTALL	lure	n/a	n/a	n/a	n/a	1
417.379	0.333328972	INMATE	lure	n/a	n/a	n/a	n/a	1
417.712	0.483374851	DOCUMENT	lure	n/a	n/a	n/a	n/a	1
418.195	0.599947877	HESITANCE	lure	n/a	n/a	n/a	n/a	1
418.795	0.566656959	MOBILITY	lure	n/a	n/a	n/a	n/a	1
419.362	0.466715819	ACCORDION	lure	n/a	n/a	n/a	n/a	1
419.829	0.716598954	IGNITION	lure	n/a	n/a	n/a	n/a	1
420.545	0.416661637	HEMLOCK	lure	n/a	n/a	n/a	n/a	1
420.962	0.733324322	CUBISM	lure	n/a	n/a	n/a	n/a	1
421.695	0.549994694	FLEET	lure	n/a	n/a	n/a	n/a	1
422.245	0.499988558	DAFFODIL	lure	n/a	n/a	n/a	n/a	1
422.745	0.61952462	SPARK	short	n/a	n/a	n/a	n/a	1
423.365	0.667803556	GLASSWARE	lure	n/a	n/a	n/a	n/a	1
424.033	0.59957012	HOPPER	lure	n/a	n/a	n/a	n/a	1
424.632	0.463069769	TRUNK	lure	n/a	n/a	n/a	n/a	1
425.095	0.616718717	REFERRAL	lure	n/a	n/a	n/a	n/a	1
425.712	0.36659729	PREPAYMENT	lure	n/a	n/a	n/a	n/a	1
426.079	0.733385209	PISTOL	lure	n/a	n/a	n/a	n/a	1
426.812	0.683263479	AQUEDUCT	lure	n/a	n/a	n/a	n/a	1
427.495	0.349994563	BRAWN	lure	n/a	n/a	n/a	n/a	1
427.845	0.716657671	FLINT	lure	n/a	n/a	n/a	n/a	1
428.562	0.416657329	CONTINUITY	lure	n/a	n/a	n/a	n/a	1
428.979	0.649992233	PLAYTHING	lure	n/a	n/a	n/a	n/a	1
429.629	0.716656307	DIRECTOR	lure	n/a	n/a	n/a	n/a	1
430.345	0.333330115	PHYSIOLOGY	lure	n/a	n/a	n/a	n/a	1
430.679	0.749989452	PORTHOLE	lure	n/a	n/a	n/a	n/a	1
431.429	2.016639596	PYRAMID	long	n/a	n/a	n/a	n/a	1
433.445	0.566650935	OUTFITTER	lure	n/a	n/a	n/a	n/a	1
434.012	0.466666909	INCLUSION	lure	n/a	n/a	n/a	n/a	1
434.478	0.68332326	LANGUAGE	lure	n/a	n/a	n/a	n/a	1
435.162	0.416655728	VERACITY	lure	n/a	n/a	n/a	n/a	1
435.578	0.349992964	STROLLER	lure	n/a	n/a	n/a	n/a	1
435.928	0.433336078	WEAVER	lure	n/a	n/a	n/a	n/a	1
436.362	0.499988387	YEARLING	lure	n/a	n/a	n/a	n/a	1
436.862	0.399994638	PALLBEARER	lure	n/a	n/a	n/a	n/a	1
437.262	0.566660215	KITTEN	lure	n/a	n/a	n/a	n/a	1
437.828	0.399991723	CLUBFOOT	lure	n/a	n/a	n/a	n/a	1
438.228	0.633321722	NEWSREEL	lure	n/a	n/a	n/a	n/a	1
438.862	0.683330579	SEMESTER	lure	n/a	n/a	n/a	n/a	1
439.545	0.38332732	AIRSHIP	lure	n/a	n/a	n/a	n/a	1
439.928	1.066649637	LIME	fruit	n/a	692	2	2	1
440.995	0.599992129	ASSEMBLY	lure	n/a	n/a	n/a	n/a	1
441.595	0.749988074	SNOWDRIFT	lure	n/a	n/a	n/a	n/a	1
442.345	0.666657995	FORESTRY	lure	n/a	n/a	n/a	n/a	1
443.012	0.666654506	COMPLEXITY	lure	n/a	n/a	n/a	n/a	1
443.678	0.583391546	CLOCKWORK	lure	n/a	n/a	n/a	n/a	1
444.262	0.516676735	VOLATILITY	lure	n/a	n/a	n/a	n/a	1
444.778	0.666635463	DIVIDEND	lure	n/a	n/a	n/a	n/a	1
445.445	0.416597268	WICKET	lure	n/a	n/a	n/a	n/a	1
445.862	0.700321206	ALFALFA	lure	n/a	n/a	n/a	n/a	1
446.562	0.799658957	HARPER	lure	n/a	n/a	n/a	n/a	1
447.362	0.566654253	TRAY	lure	n/a	n/a	n/a	n/a	1
447.928	0.366773697	VIXEN	lure	n/a	n/a	n/a	n/a	1
448.295	2.016529767	COLUMN	long	n/a	n/a	n/a	n/a	1
450.312	0.366661074	PATIENCE	lure	n/a	n/a	n/a	n/a	1
450.678	0.699987807	COTTONSEED	lure	n/a	n/a	n/a	n/a	1
451.378	0.566657844	SCRAPBOOK	lure	n/a	n/a	n/a	n/a	1
451.945	0.583388982	HUB	lure	n/a	n/a	n/a	n/a	1
452.528	0.449996674	EXPEDITION	lure	n/a	n/a	n/a	n/a	1
452.978	0.402419598	MIDDLEMAN	lure	n/a	n/a	n/a	n/a	1
453.381	0.514234627	MOB	lure	n/a	n/a	n/a	n/a	1
453.895	0.69992911	PICKUP	lure	n/a	n/a	n/a	n/a	1
454.595	0.516658141	CORNFIELD	lure	n/a	n/a	n/a	n/a	1
455.112	0.700054661	DIAPER	lure	n/a	n/a	n/a	n/a	1
455.812	0.416711832	FORMATION	lure	n/a	n/a	n/a	n/a	1
456.228	0.583205867	GUNNER	lure	n/a	n/a	n/a	n/a	1
456.811	0.366717653	JOURNALISM	lure	n/a	n/a	n/a	n/a	1
457.178	0.666661713	MILEAGE	lure	n/a	n/a	n/a	n/a	1
457.845	0.74993127	FARMYARD	lure	n/a	n/a	n/a	n/a	1
458.595	0.449995526	CONCOCTION	lure	n/a	n/a	n/a	n/a	1
459.045	0.599988385	MIRACLE	lure	n/a	n/a	n/a	n/a	1
459.645	0.333324344	WINDSOCK	lure	n/a	n/a	n/a	n/a	1
459.978	0.35000313	PERMAFROST	lure	n/a	n/a	n/a	n/a	1
460.328	0.749982735	VASSAL	lure	n/a	n/a	n/a	n/a	1
461.078	0.700039573	JUG	lure	n/a	n/a	n/a	n/a	1
461.778	0.416625494	CHEESECAKE	lure	n/a	n/a	n/a	n/a	1
462.195	0.499980574	GNOME	lure	n/a	n/a	n/a	n/a	1
462.695	0.333328741	FLAX	lure	n/a	n/a	n/a	n/a	1
463.028	0.616664236	PLUNGER	lure	n/a	n/a	n/a	n/a	1
463.645	0.316662988	TEn/aCY	lure	n/a	n/a	n/a	n/a	1
463.961	0.59998327	ANTIBODY	lure	n/a	n/a	n/a	n/a	1
464.561	n/a	SHARK	lure	n/a	n/a	n/a	n/a	1