onset	duration	stim	cond	RT	resp	cresp	acc
4.045	0.646080189	MOBSTER	lure	n/a	n/a	n/a	1
4.692	0.699991134	MARSH	lure	n/a	n/a	n/a	1
5.392	0.499995757	SUMMARY	lure	n/a	n/a	n/a	1
5.892	0.53332688	PRETENSION	lure	n/a	n/a	n/a	1
6.425	0.349991961	COMMENTARY	lure	n/a	n/a	n/a	1
6.775	0.633385095	SKYLINE	lure	n/a	n/a	n/a	1
7.408	0.483269249	HOLLY	lure	n/a	n/a	n/a	1
7.892	2.016638855	LIGHT	long	n/a	n/a	n/a	1
9.908	0.433326478	SHOPKEEPER	lure	n/a	n/a	n/a	1
10.341	0.571392906	WILDLIFE	lure	n/a	n/a	n/a	1
10.913	0.496783857	LAUNCHER	lure	n/a	n/a	n/a	1
11.41	0.348471995	CLAPPER	lure	n/a	n/a	n/a	1
11.758	0.533323583	WEALTH	lure	n/a	n/a	n/a	1
12.291	0.416661628	ADOPTION	lure	n/a	n/a	n/a	1
12.708	0.716655828	UNDERLING	lure	n/a	n/a	n/a	1
13.425	0.766658828	NUNNERY	lure	n/a	n/a	n/a	1
14.191	0.716659651	MOTORBOAT	lure	n/a	n/a	n/a	1
14.908	0.466651359	SPHINCTER	lure	n/a	n/a	n/a	1
15.375	0.683326288	SPORTSMAN	lure	n/a	n/a	n/a	1
16.058	0.416662395	ELITISM	lure	n/a	n/a	n/a	1
16.475	0.616660991	ROCK	short	n/a	n/a	n/a	1
17.091	0.549992577	MUSK	lure	n/a	n/a	n/a	1
17.641	0.533316867	REFLECTOR	lure	n/a	n/a	n/a	1
18.175	0.366663453	DISRESPECT	lure	n/a	n/a	n/a	1
18.541	0.599994177	AFFINITY	lure	n/a	n/a	n/a	1
19.141	0.499990292	SPEAKEASY	lure	n/a	n/a	n/a	1
19.641	0.3499991	TURBINE	lure	n/a	n/a	n/a	1
19.991	0.549993138	CARGO	lure	n/a	n/a	n/a	1
20.541	0.316656286	DIVA	lure	n/a	n/a	n/a	1
20.858	0.499998191	APPLICANT	lure	n/a	n/a	n/a	1
21.358	0.733322731	HANGMAN	lure	n/a	n/a	n/a	1
22.091	0.599992342	SISTERHOOD	lure	n/a	n/a	n/a	1
22.691	0.483326962	MELODRAMA	lure	n/a	n/a	n/a	1
23.175	0.383326437	COUPE	lure	n/a	n/a	n/a	1
23.558	0.6833242	BOAR	lure	n/a	n/a	n/a	1
24.241	0.399993781	BEACHHEAD	lure	n/a	n/a	n/a	1
24.641	0.616660003	CYCLONE	short	n/a	n/a	n/a	1
25.258	0.616657304	ELLIPSE	lure	n/a	n/a	n/a	1
25.875	0.716656741	CHARISMA	lure	n/a	n/a	n/a	1
26.591	0.351445318	STOREHOUSE	lure	n/a	n/a	n/a	1
26.943	0.415210672	PUSHOVER	lure	n/a	n/a	n/a	1
27.358	0.749990577	PURGATORY	lure	n/a	n/a	n/a	1
28.108	0.316664068	HOLOGRAPH	lure	n/a	n/a	n/a	1
28.425	0.566654328	BOXCAR	lure	n/a	n/a	n/a	1
28.991	0.483327538	SEMINAR	lure	n/a	n/a	n/a	1
29.475	0.435637319	EXTENT	lure	n/a	n/a	n/a	1
29.91	0.597682964	ALTERATION	lure	n/a	n/a	n/a	1
30.508	0.399993813	CHINCHILLA	lure	n/a	n/a	n/a	1
30.908	0.749989617	OBJECTOR	lure	n/a	n/a	n/a	1
31.658	0.733321976	ADMIRER	lure	n/a	n/a	n/a	1
32.391	0.333328767	CONFIDANTE	lure	n/a	n/a	n/a	1
32.725	1.01665428	BAn/aA	fruit	610	2	2	1
33.741	0.449992822	AISLE	lure	n/a	n/a	n/a	1
34.191	0.499993397	BRAINSTORM	lure	n/a	n/a	n/a	1
34.691	0.749990464	DOCKET	lure	n/a	n/a	n/a	1
35.441	0.633322898	PRETEST	lure	n/a	n/a	n/a	1
36.074	0.699991711	FOREBEAR	lure	n/a	n/a	n/a	1
36.774	0.566659516	LAYOVER	lure	n/a	n/a	n/a	1
37.341	0.366659716	REPORTER	lure	n/a	n/a	n/a	1
37.708	0.516659482	BENCH	lure	n/a	n/a	n/a	1
38.224	0.649991251	COACHMAN	lure	n/a	n/a	n/a	1
38.874	0.58332511	MEDIATION	lure	n/a	n/a	n/a	1
39.458	0.483326653	OFFSHOOT	lure	n/a	n/a	n/a	1
39.941	0.34999592	SAUCE	lure	n/a	n/a	n/a	1
40.291	0.399990585	CADDIE	lure	n/a	n/a	n/a	1
40.691	2.016642821	RAVINE	long	n/a	n/a	n/a	1
42.708	0.433325727	VIBRATION	lure	n/a	n/a	n/a	1
43.141	0.333329401	DEED	lure	n/a	n/a	n/a	1
43.474	0.633323377	FINISHER	lure	n/a	n/a	n/a	1
44.108	0.416656963	NUISANCE	lure	n/a	n/a	n/a	1
44.524	0.549995985	WAISTLINE	lure	n/a	n/a	n/a	1
45.074	0.549992682	VIOLENCE	lure	n/a	n/a	n/a	1
45.624	0.39999569	GUIDEBOOK	lure	n/a	n/a	n/a	1
46.024	0.416660033	CONTEST	lure	n/a	n/a	n/a	1
46.441	0.649990507	UNION	lure	n/a	n/a	n/a	1
47.091	0.466660445	FREEBOARD	lure	n/a	n/a	n/a	1
47.558	0.583325386	INSIGHT	lure	n/a	n/a	n/a	1
48.141	0.649990925	NEAPOLITAN	lure	n/a	n/a	n/a	1
48.791	0.669619186	SEDIMENT	lure	n/a	n/a	n/a	1
49.461	2.04845168	SPEAR	long	n/a	n/a	n/a	1
51.509	0.58194747	INSET	lure	n/a	n/a	n/a	1
52.091	0.616595227	PREMISE	lure	n/a	n/a	n/a	1
52.708	0.63332361	BREEDER	lure	n/a	n/a	n/a	1
53.341	0.483327412	PARKHOUSE	lure	n/a	n/a	n/a	1
53.824	0.350032801	MANICURE	lure	n/a	n/a	n/a	1
54.174	0.483288544	IMPORTANCE	lure	n/a	n/a	n/a	1
54.658	0.649994381	DEPARTURE	lure	n/a	n/a	n/a	1
55.308	0.399991294	SORORITY	lure	n/a	n/a	n/a	1
55.708	0.716654375	MONORAIL	lure	n/a	n/a	n/a	1
56.424	0.750027952	UNDERSIDE	lure	n/a	n/a	n/a	1
57.174	0.554642869	DEFICIENCY	lure	n/a	n/a	n/a	1
57.729	2.013599129	LABEL	long	n/a	n/a	n/a	1
59.742	0.398438482	DECEDENT	lure	n/a	n/a	n/a	1
60.141	0.616562896	CANDY	lure	n/a	n/a	n/a	1
60.757	0.499997342	PERSONA	lure	n/a	n/a	n/a	1
61.257	0.383326024	TOWN	lure	n/a	n/a	n/a	1
61.641	0.75003978	PORTION	lure	n/a	n/a	n/a	1
62.391	0.634754522	THERAPY	lure	n/a	n/a	n/a	1
63.026	0.498559109	NOVELTY	lure	n/a	n/a	n/a	1
63.524	0.566609977	VALUATION	lure	n/a	n/a	n/a	1
64.091	0.533329575	EMPATHY	lure	n/a	n/a	n/a	1
64.624	0.683325255	PURSUER	lure	n/a	n/a	n/a	1
65.307	0.466659451	INVESTOR	lure	n/a	n/a	n/a	1
65.774	0.617412505	PLANK	short	n/a	n/a	n/a	1
66.391	0.732567364	SECRECY	lure	n/a	n/a	n/a	1
67.124	0.68332518	SCRUTINY	lure	n/a	n/a	n/a	1
67.807	0.499990544	WANDERER	lure	n/a	n/a	n/a	1
68.307	0.349997256	DIPPER	lure	n/a	n/a	n/a	1
68.657	0.416775488	HILARITY	lure	n/a	n/a	n/a	1
69.074	0.649961157	MICROSCOPE	lure	n/a	n/a	n/a	1
69.724	0.683241516	DESERT	lure	n/a	n/a	n/a	1
70.407	0.333326551	TRANSISTOR	lure	n/a	n/a	n/a	1
70.741	0.483327193	BAKERY	lure	n/a	n/a	n/a	1
71.224	0.699986523	SOUTHPAW	lure	n/a	n/a	n/a	1
71.924	0.399998374	TERRYCLOTH	lure	n/a	n/a	n/a	1
72.324	0.683322924	HANDMAIDEN	lure	n/a	n/a	n/a	1
73.007	0.40165342	BUDDY	lure	n/a	n/a	n/a	1
73.409	0.731665688	POETRY	lure	n/a	n/a	n/a	1
74.141	1.016651606	LIME	fruit	n/a	n/a	2	0
75.157	0.69998827	DILATATION	lure	n/a	n/a	n/a	1
75.857	0.349996729	CATWALK	lure	n/a	n/a	n/a	1
76.207	0.733320954	TREASURE	lure	n/a	n/a	n/a	1
76.941	0.383329725	TECHNICIAN	lure	n/a	n/a	n/a	1
77.324	0.6499912	SOLDIERY	lure	n/a	n/a	n/a	1
77.974	0.499988943	SPELLER	lure	n/a	n/a	n/a	1
78.474	0.400000518	THROWER	lure	n/a	n/a	n/a	1
78.874	0.666657105	CARPENTRY	lure	n/a	n/a	n/a	1
79.541	0.366659443	FLAGELLA	lure	n/a	n/a	n/a	1
79.907	0.633321589	CRAB	lure	n/a	n/a	n/a	1
80.541	0.449998282	BLOTCH	lure	n/a	n/a	n/a	1
80.991	0.683322307	TUNNEL	lure	n/a	n/a	n/a	1
81.674	0.383328247	STINGRAY	lure	n/a	n/a	n/a	1
82.057	1.01665086	ELDERBERRY	fruit	581	2	2	1
83.074	0.716720319	COURTROOM	lure	n/a	n/a	n/a	1
83.791	0.650792038	GILL	lure	n/a	n/a	n/a	1
84.441	0.685792943	BULLOCK	lure	n/a	n/a	n/a	1
85.127	0.729994165	ROVER	lure	n/a	n/a	n/a	1
85.857	0.333327374	PRINCE	lure	n/a	n/a	n/a	1
86.19	0.516658943	VERSION	lure	n/a	n/a	n/a	1
86.707	0.51665875	ENTOMOLOGY	lure	n/a	n/a	n/a	1
87.224	0.766656071	FIANCEE	lure	n/a	n/a	n/a	1
87.99	0.683325069	INSTRUMENT	lure	n/a	n/a	n/a	1
88.674	0.620292548	MOOD	lure	n/a	n/a	n/a	1
89.294	0.450565865	TRAPPER	lure	n/a	n/a	n/a	1
89.745	0.732619681	MUSICIAN	lure	n/a	n/a	n/a	1
90.477	0.614517155	BROOM	short	n/a	n/a	n/a	1
91.092	0.748625697	ADAPTATION	lure	n/a	n/a	n/a	1
91.84	0.616659132	EASEMENT	lure	n/a	n/a	n/a	1
92.457	0.316663103	CABIN	lure	n/a	n/a	n/a	1
92.774	0.733373487	INFERENCE	lure	n/a	n/a	n/a	1
93.507	0.483274819	SADDLEBAG	lure	n/a	n/a	n/a	1
93.99	0.499993455	BANKNOTE	lure	n/a	n/a	n/a	1
94.49	0.566660571	OAT	lure	n/a	n/a	n/a	1
95.057	0.416660797	HANDBAG	lure	n/a	n/a	n/a	1
95.474	0.450038644	SAWDUST	lure	n/a	n/a	n/a	1
95.924	0.56661284	GENTRY	lure	n/a	n/a	n/a	1
96.49	0.466659142	BLOTTER	lure	n/a	n/a	n/a	1
96.957	0.633324951	BOUNCER	lure	n/a	n/a	n/a	1
97.59	0.699991743	CAREERISM	lure	n/a	n/a	n/a	1
98.29	0.533435131	TIGER	lure	n/a	n/a	n/a	1
98.824	2.016528047	CHISEL	long	n/a	n/a	n/a	1
100.84	0.416775973	RETROSPECT	lure	n/a	n/a	n/a	1
101.257	0.316547141	INSOMNIA	lure	n/a	n/a	n/a	1
101.574	0.550037556	SIDEWINDER	lure	n/a	n/a	n/a	1
102.124	0.433346823	RESHUFFLE	lure	n/a	n/a	n/a	1
102.557	0.433263631	LEVITY	lure	n/a	n/a	n/a	1
102.99	0.699990351	BUYER	lure	n/a	n/a	n/a	1
103.69	0.45129837	CHOIRBOY	lure	n/a	n/a	n/a	1
104.141	0.615353031	IMPATIENCE	lure	n/a	n/a	n/a	1
104.757	0.650049703	TANGERINE	lure	n/a	n/a	n/a	1
105.407	0.566599716	REDHEAD	lure	n/a	n/a	n/a	1
105.973	0.699989027	PIETY	lure	n/a	n/a	n/a	1
106.673	0.43332588	BOOKIE	lure	n/a	n/a	n/a	1
107.107	0.616656943	PANEL	short	n/a	n/a	n/a	1
107.723	0.366665363	MINUTEMAN	lure	n/a	n/a	n/a	1
108.09	0.333328551	REGGAE	lure	n/a	n/a	n/a	1
108.423	0.666657429	NOTEBOOK	lure	n/a	n/a	n/a	1
109.09	0.516658635	PRETENSE	lure	n/a	n/a	n/a	1
109.607	0.38332969	DEPICTION	lure	n/a	n/a	n/a	1
109.99	0.599992358	GASP	lure	n/a	n/a	n/a	1
110.59	0.333326559	SPEEDWAY	lure	n/a	n/a	n/a	1
110.923	0.666657934	CORNMEAL	lure	n/a	n/a	n/a	1
111.59	0.416660302	CONTINENT	lure	n/a	n/a	n/a	1
112.007	0.699986277	AIRFRAME	lure	n/a	n/a	n/a	1
112.707	0.633328745	POVERTY	lure	n/a	n/a	n/a	1
113.34	0.716659871	FRINGE	lure	n/a	n/a	n/a	1
114.057	0.66665511	BATH	lure	n/a	n/a	n/a	1
114.723	0.583323707	SUBTLETY	lure	n/a	n/a	n/a	1
115.307	1.016650786	NECTARINE	fruit	596	2	2	1
116.323	0.699992656	WARREN	lure	n/a	n/a	n/a	1
117.023	0.517834978	FELICITY	lure	n/a	n/a	n/a	1
117.541	0.650590931	STOVE	lure	n/a	n/a	n/a	1
118.192	0.564885676	SKYSCRAPER	lure	n/a	n/a	n/a	1
118.757	0.666656591	SPA	lure	n/a	n/a	n/a	1
119.423	0.466658699	TERRACE	lure	n/a	n/a	n/a	1
119.89	0.483328488	IMMERSION	lure	n/a	n/a	n/a	1
120.373	0.566656749	SPECTRUM	lure	n/a	n/a	n/a	1
120.94	0.733325031	PULSAR	lure	n/a	n/a	n/a	1
121.673	0.49999043	SILHOUETTE	lure	n/a	n/a	n/a	1
122.173	0.466656182	MOONLIGHT	lure	n/a	n/a	n/a	1
122.64	0.733329761	APOSTROPHE	lure	n/a	n/a	n/a	1
123.373	0.499991499	SOLICITUDE	lure	n/a	n/a	n/a	1
123.873	0.620956754	MATTER	short	n/a	n/a	n/a	1
124.494	0.612806483	FISHMONGER	lure	n/a	n/a	n/a	1
125.107	0.46621053	ZEBRA	lure	n/a	n/a	n/a	1
125.573	0.483326289	HARLOT	lure	n/a	n/a	n/a	1
126.057	0.399998633	SHRUBBERY	lure	n/a	n/a	n/a	1
126.457	0.349990982	OBLIGATION	lure	118	2	n/a	0
126.807	0.616663482	COWBIRD	lure	n/a	n/a	n/a	1
127.423	0.516658049	PAPA	lure	n/a	n/a	n/a	1
127.94	0.749985975	CLAMPDOWN	lure	n/a	n/a	n/a	1
128.69	0.649991172	MINDER	lure	n/a	n/a	n/a	1
129.34	0.349997635	TORQUE	lure	n/a	n/a	n/a	1
129.69	0.46665794	RANCH	lure	n/a	n/a	n/a	1
130.156	0.749991287	EXPORT	lure	n/a	n/a	n/a	1
130.906	0.366661922	PYTHON	lure	n/a	n/a	n/a	1
131.273	0.366664662	BACKER	lure	n/a	n/a	n/a	1
131.64	0.616654339	ISLAND	short	n/a	n/a	n/a	1
132.256	0.599989559	NUTSHELL	lure	n/a	n/a	n/a	1
132.856	0.78332542	MONOLOGIST	lure	n/a	n/a	n/a	1
133.64	0.59998839	SCHOOLBOY	lure	n/a	n/a	n/a	1
134.24	0.649996931	SEA	lure	n/a	n/a	n/a	1
134.89	0.666653847	CONFORMITY	lure	n/a	n/a	n/a	1
135.556	0.766657754	MOTHBALL	lure	n/a	n/a	n/a	1
136.323	0.766657784	ADVERSITY	lure	n/a	n/a	n/a	1
137.09	0.566653217	SHIPMATE	lure	n/a	n/a	n/a	1
137.656	0.683325789	COMPOSURE	lure	n/a	n/a	n/a	1
138.34	0.616659777	HYSTERIA	lure	n/a	n/a	n/a	1
138.956	0.716653333	TELEGRAPHY	lure	n/a	n/a	n/a	1
139.673	0.599995056	COUGAR	lure	n/a	n/a	n/a	1
140.273	2.016635534	CENT	long	n/a	n/a	n/a	1
142.29	0.599992208	SONATA	lure	n/a	n/a	n/a	1
142.89	0.48332882	READERSHIP	lure	n/a	n/a	n/a	1
143.373	0.750040992	HANDGUN	lure	n/a	n/a	n/a	1
144.123	0.349943253	FISHERY	lure	n/a	n/a	n/a	1
144.473	0.366665586	BUNNY	lure	n/a	n/a	n/a	1
144.84	0.566658791	CHEVRON	lure	n/a	n/a	n/a	1
145.406	0.733370546	FIBER	lure	n/a	n/a	n/a	1
146.14	0.383276955	LULLABY	lure	n/a	n/a	n/a	1
146.523	0.466661672	TEAMWORK	lure	n/a	n/a	n/a	1
146.99	0.566711907	SUNDIAL	lure	n/a	n/a	n/a	1
147.556	0.533273118	CARNAGE	lure	n/a	n/a	n/a	1
148.09	0.399993627	COLLEAGUE	lure	n/a	n/a	n/a	1
148.49	0.616657427	ORNAMENT	short	n/a	n/a	n/a	1
149.106	0.383327706	HUMANISM	lure	n/a	n/a	n/a	1
149.49	0.533328221	SUNBEAM	lure	n/a	n/a	n/a	1
150.023	0.683323458	EXPERT	lure	n/a	n/a	n/a	1
150.706	0.333329078	BRAINWAVE	lure	n/a	n/a	n/a	1
151.04	0.4166616	GIZZARD	lure	n/a	n/a	n/a	1
151.456	0.650052286	CAULDRON	lure	n/a	n/a	n/a	1
152.106	0.333318174	STOCKROOM	lure	n/a	n/a	n/a	1
152.44	0.683273324	ADOBE	lure	n/a	n/a	n/a	1
153.123	0.549988861	INVESTMENT	lure	n/a	n/a	n/a	1
153.673	0.500046112	FOLLICLE	lure	n/a	n/a	n/a	1
154.173	0.316662234	ONSLAUGHT	lure	n/a	n/a	n/a	1
154.49	0.466605023	HAVEN	lure	n/a	n/a	n/a	1
154.956	0.666659953	AMMUNITION	lure	n/a	n/a	n/a	1
155.623	0.333381619	JELLO	lure	n/a	n/a	n/a	1
155.956	0.433328447	TOMAHAWK	lure	n/a	n/a	n/a	1
156.39	0.533273254	DAIRYMAN	lure	n/a	n/a	n/a	1
156.923	1.016652453	WATERMELON	fruit	692	2	2	1
157.939	0.616659427	RACKETEER	lure	n/a	n/a	n/a	1
158.556	0.666658366	ASSISTANCE	lure	n/a	n/a	n/a	1
159.223	0.349994732	PERMEATION	lure	n/a	n/a	n/a	1
159.573	0.649988069	STATURE	lure	n/a	n/a	n/a	1
160.223	0.683325615	OVERFLOW	lure	n/a	n/a	n/a	1
160.906	0.667272491	GRAVITY	lure	n/a	n/a	n/a	1
161.573	0.316047943	RIVERSIDE	lure	n/a	n/a	n/a	1
161.889	0.616652862	TOPSIDE	lure	n/a	n/a	n/a	1
162.506	0.66666245	TAILWIND	lure	n/a	n/a	n/a	1
163.173	0.333329488	INGENUITY	lure	n/a	n/a	n/a	1
163.506	0.733322372	GEM	lure	n/a	n/a	n/a	1
164.239	0.553325728	WORKHOUSE	lure	n/a	n/a	n/a	1
164.793	0.449563633	RIFT	lure	n/a	n/a	n/a	1
165.242	2.015602516	WAGON	long	n/a	n/a	n/a	1
167.258	0.481461177	CHARGER	lure	n/a	n/a	n/a	1
167.739	0.483320065	GUNSLINGER	lure	n/a	n/a	n/a	1
168.223	0.53332622	LUSTRE	lure	n/a	n/a	n/a	1
168.756	0.34999489	GODFATHER	lure	n/a	n/a	n/a	1
169.106	0.766744313	AFTERCARE	lure	n/a	n/a	n/a	1
169.873	0.533279739	WEAKLING	lure	n/a	n/a	n/a	1
170.406	0.666620685	ASTRODOME	lure	n/a	n/a	n/a	1
171.073	0.416714493	KRAUT	lure	n/a	n/a	n/a	1
171.489	0.716600647	EXCERPT	lure	n/a	n/a	n/a	1
172.206	0.5666613	RESIDENT	lure	n/a	n/a	n/a	1
172.773	0.633374695	CASHEW	lure	n/a	n/a	n/a	1
173.406	0.751144743	PILLION	lure	n/a	n/a	n/a	1
174.157	0.615451472	STICK	short	n/a	n/a	n/a	1
174.773	0.566659438	SONOGRAM	lure	n/a	n/a	n/a	1
175.339	0.666656983	APATHY	lure	n/a	n/a	n/a	1
176.006	0.650044455	MERCY	lure	n/a	n/a	n/a	1
176.656	0.466644115	AIRFLOW	lure	n/a	n/a	n/a	1
177.123	0.750448683	STOCKMAN	lure	n/a	n/a	n/a	1
177.873	0.549534332	EXULTATION	lure	n/a	n/a	n/a	1
178.423	0.733286968	RAINWATER	lure	n/a	n/a	n/a	1
179.156	0.633324218	COCKATOO	lure	n/a	n/a	n/a	1
179.789	0.516698447	LIGHTBULB	lure	n/a	n/a	n/a	1
180.306	0.566664188	AMINO	lure	n/a	n/a	n/a	1
180.873	0.649991577	MENACE	lure	n/a	n/a	n/a	1
181.522	0.53332608	ROLE	lure	n/a	n/a	n/a	1
182.056	0.533279856	NEARSIDE	lure	n/a	n/a	n/a	1
182.589	2.016637552	PHOTO	long	n/a	n/a	n/a	1
184.606	0.66665459	TAXPAYER	lure	n/a	n/a	n/a	1
185.272	0.449999273	SQUEALER	lure	n/a	n/a	n/a	1
185.722	0.549988583	SHIPMENT	lure	n/a	n/a	n/a	1
186.272	0.433329858	HOROSCOPE	lure	n/a	n/a	n/a	1
186.706	0.71665468	TARIFF	lure	n/a	n/a	n/a	1
187.422	0.617664579	DETENTION	lure	n/a	n/a	n/a	1
188.04	0.3156966	DUCKBILL	lure	n/a	n/a	n/a	1
188.356	0.749950458	WAREHOUSE	lure	n/a	n/a	n/a	1
189.106	0.749989682	MONOGRAPH	lure	n/a	n/a	n/a	1
189.856	0.716705569	FIGURINE	lure	n/a	n/a	n/a	1
190.572	0.651997533	SPONGE	lure	n/a	n/a	n/a	1
191.224	2.014600874	GIFT	long	n/a	n/a	n/a	1
193.239	0.499971147	CINNAMON	lure	n/a	n/a	n/a	1
193.739	0.633330773	IGNITION	lure	n/a	n/a	n/a	1
194.372	0.499992126	STARGAZER	lure	n/a	n/a	n/a	1
194.872	0.349989802	NEWSREADER	lure	n/a	n/a	n/a	1
195.222	0.583329563	JEALOUSY	lure	n/a	n/a	n/a	1
195.806	0.633374234	BODYWORK	lure	n/a	n/a	n/a	1
196.439	0.566659561	PICKUP	lure	n/a	n/a	n/a	1
197.006	0.316661492	RIGGER	lure	n/a	n/a	n/a	1
197.322	0.633273339	ACTIVISM	lure	n/a	n/a	n/a	1
197.956	0.54999596	CONFESSION	lure	n/a	n/a	n/a	1
198.506	0.633323822	FEMININITY	lure	n/a	n/a	n/a	1
199.139	0.483326162	EXTREMITY	lure	n/a	n/a	n/a	1
199.622	0.616657405	RIDGE	short	n/a	n/a	n/a	1
200.239	0.666653738	DEBAUCHERY	lure	n/a	n/a	n/a	1
200.906	0.383332146	BEDSTEAD	lure	n/a	n/a	n/a	1
201.289	0.549991784	CORDIALITY	lure	n/a	n/a	n/a	1
201.839	0.549994569	BORDERLAND	lure	n/a	n/a	n/a	1
202.389	0.633318652	CHASER	lure	n/a	n/a	n/a	1
203.022	0.48332733	FIREBRAND	lure	n/a	n/a	n/a	1
203.505	0.483326191	INVENTORY	lure	n/a	n/a	n/a	1
203.989	0.766655958	GODPARENT	lure	n/a	n/a	n/a	1
204.755	0.733323075	DEFENCE	lure	n/a	n/a	n/a	1
205.489	0.716656754	Un/aEST	lure	n/a	n/a	n/a	1
206.205	0.433333952	OPERATOR	lure	n/a	n/a	n/a	1
206.639	0.333322072	PRECISION	lure	n/a	n/a	n/a	1
206.972	0.566662561	SYCAMORE	lure	n/a	n/a	n/a	1
207.539	0.449993732	MARTINI	lure	n/a	n/a	n/a	1
207.989	1.016649058	LEMON	fruit	914	2	2	1
209.005	0.35000139	REMODEL	lure	n/a	n/a	n/a	1
209.355	0.504061998	VISA	lure	n/a	n/a	n/a	1
209.859	0.579256323	JUKEBOX	lure	n/a	n/a	n/a	1
210.439	0.666651545	VASSAL	lure	n/a	n/a	n/a	1
211.105	0.616659068	TURBAN	lure	n/a	n/a	n/a	1
211.722	0.333333674	FORBEAR	lure	n/a	n/a	n/a	1
212.055	0.66665058	MILLENNIA	lure	n/a	n/a	n/a	1
212.722	0.599997038	UTTERANCE	lure	n/a	n/a	n/a	1
213.322	0.56936909	TEENAGER	lure	n/a	n/a	n/a	1
213.891	0.601565804	DARLING	lure	n/a	n/a	n/a	1
214.493	0.429044822	PEASANTRY	lure	n/a	n/a	n/a	1
214.922	0.499986842	BASIL	lure	n/a	n/a	n/a	1
215.422	0.349994923	BRIMSTONE	lure	n/a	n/a	n/a	1
215.772	0.416660979	CARTILAGE	lure	n/a	n/a	n/a	1
216.189	2.016641442	BELL	long	n/a	n/a	n/a	1
218.205	0.633372359	ELASTICITY	lure	n/a	n/a	n/a	1
218.839	0.633328026	CAROUSEL	lure	n/a	n/a	n/a	1
219.472	0.41661173	FACADE	lure	n/a	n/a	n/a	1
219.889	0.316663369	BENEFACTOR	lure	n/a	n/a	n/a	1
220.205	0.333328691	ENACTMENT	lure	n/a	n/a	n/a	1
220.539	0.599991325	INNING	lure	n/a	n/a	n/a	1
221.139	0.583319889	BASSOON	lure	n/a	n/a	n/a	1
221.722	0.683330055	CORPORAL	lure	n/a	n/a	n/a	1
222.405	0.483320887	CALCULATOR	lure	n/a	n/a	n/a	1
222.889	0.416664225	DRIFTER	lure	n/a	n/a	n/a	1
223.305	0.46670712	ICECAP	lure	n/a	n/a	n/a	1
223.772	0.399949585	PULSATION	lure	n/a	n/a	n/a	1
224.172	0.683322431	HUSSY	lure	n/a	n/a	n/a	1
224.855	0.750037736	CRUSADE	lure	n/a	n/a	n/a	1
225.605	0.416655442	MAGNOLIA	lure	n/a	n/a	n/a	1
226.022	0.449978776	CASEWORK	lure	n/a	n/a	n/a	1
226.472	n/a	DOWNPOUR	lure	n/a	n/a	n/a	1
238.025	0.363345168	STONEWORK	lure	n/a	n/a	n/a	1
238.388	0.616663857	OVERPRINT	lure	n/a	n/a	n/a	1
239.005	0.716658846	RITE	lure	n/a	n/a	n/a	1
239.722	0.516651601	WARMUP	lure	n/a	n/a	n/a	1
240.238	0.366663738	DELUGE	lure	n/a	n/a	n/a	1
240.605	0.333372862	TERRACOTTA	lure	n/a	n/a	n/a	1
240.938	0.335914167	POSTMEN	lure	n/a	n/a	n/a	1
241.274	2.014594723	RAVINE	long	n/a	n/a	n/a	1
243.289	0.482740971	GOLFING	lure	n/a	n/a	n/a	1
243.772	0.416710621	SIBLING	lure	n/a	n/a	n/a	1
244.188	0.33328088	COTTONSEED	lure	n/a	n/a	n/a	1
244.522	0.566659067	COUCH	lure	n/a	n/a	n/a	1
245.088	0.433389634	CRATER	lure	n/a	n/a	n/a	1
245.522	0.483261377	EYETEETH	lure	n/a	n/a	n/a	1
246.005	0.753304344	PORPOISE	lure	n/a	n/a	n/a	1
246.758	0.513345349	SWINDLER	lure	n/a	n/a	n/a	1
247.272	0.5166599	REVELRY	lure	n/a	n/a	n/a	1
247.788	0.387972618	SYMPATHY	lure	n/a	n/a	n/a	1
248.176	0.346500929	YOGURT	lure	n/a	n/a	n/a	1
248.523	0.465573182	THEW	lure	n/a	n/a	n/a	1
248.988	0.616593271	PANSY	lure	n/a	n/a	n/a	1
249.605	2.016639817	GIFT	long	n/a	n/a	n/a	1
251.621	0.749990892	SKELETON	lure	n/a	n/a	n/a	1
252.371	0.550036566	SUFFERER	lure	n/a	n/a	n/a	1
252.922	0.74994723	VILLA	lure	n/a	n/a	n/a	1
253.671	0.333324554	GLYCEROL	lure	n/a	n/a	n/a	1
254.005	0.733328036	SALINE	lure	n/a	n/a	n/a	1
254.738	0.44999086	BELLMAN	lure	n/a	n/a	n/a	1
255.188	0.399993038	LONGEVITY	lure	n/a	n/a	n/a	1
255.588	0.383330463	APPARENCY	lure	n/a	n/a	n/a	1
255.971	0.599995036	FISHPOND	lure	n/a	n/a	n/a	1
256.571	0.499990896	CINDER	lure	n/a	n/a	n/a	1
257.071	0.649987646	SPECTRA	lure	n/a	n/a	n/a	1
257.721	0.483328911	CUCUMBER	lure	n/a	n/a	n/a	1
258.205	1.016651774	PEAR	fruit	618	2	2	1
259.221	0.716656325	DOLT	lure	n/a	n/a	n/a	1
259.938	0.416660963	MISERY	lure	n/a	n/a	n/a	1
260.355	0.333326917	BLOKE	lure	n/a	n/a	n/a	1
260.688	0.383785321	RETINA	lure	n/a	n/a	n/a	1
261.072	0.366209882	DEPLETION	lure	n/a	n/a	n/a	1
261.438	0.649993947	CONTENTION	lure	n/a	n/a	n/a	1
262.088	0.683319213	ETHICIST	lure	n/a	n/a	n/a	1
262.771	0.483322712	STOVEPIPE	lure	n/a	n/a	n/a	1
263.255	0.499996862	ESCALATOR	lure	n/a	n/a	n/a	1
263.755	0.716656668	FLAMINGO	lure	n/a	n/a	n/a	1
264.471	0.633326402	MILITIA	lure	n/a	n/a	n/a	1
265.105	0.533325928	HIGHLAND	lure	n/a	n/a	n/a	1
265.638	0.516654195	CUTLERY	lure	n/a	n/a	n/a	1
266.155	0.383329662	LADYSHIP	lure	n/a	n/a	n/a	1
266.538	0.649993925	ROCK	short	n/a	n/a	n/a	1
267.188	0.616695485	HUMANITY	lure	n/a	n/a	n/a	1
267.805	0.56668521	READER	lure	n/a	n/a	n/a	1
268.371	0.533259375	SONNET	lure	n/a	n/a	n/a	1
268.905	0.700044445	WOODCOCK	lure	n/a	n/a	n/a	1
269.605	0.616607015	ANYONE	lure	n/a	n/a	n/a	1
270.221	0.466657849	COOP	lure	n/a	n/a	n/a	1
270.688	0.616657443	CRUISER	lure	n/a	n/a	n/a	1
271.305	0.433326871	ACCESSORY	lure	n/a	n/a	n/a	1
271.738	0.633328952	LAWSUIT	lure	n/a	n/a	n/a	1
272.371	0.366660635	COURTYARD	lure	n/a	n/a	n/a	1
272.738	0.733317946	TANKER	lure	n/a	n/a	n/a	1
273.471	0.766660995	SHOWPIECE	lure	n/a	n/a	n/a	1
274.238	0.483323102	TREATMENT	lure	n/a	n/a	n/a	1
274.721	1.016653606	MULBERRY	fruit	949	2	2	1
275.738	0.46666204	MINELAYER	lure	n/a	n/a	n/a	1
276.204	0.333327347	WARRIOR	lure	n/a	n/a	n/a	1
276.538	0.449997653	INACCURACY	lure	n/a	n/a	n/a	1
276.988	0.43332994	FERN	lure	n/a	n/a	n/a	1
277.421	0.566651978	JUNCTION	lure	n/a	n/a	n/a	1
277.988	0.383329639	REGULATOR	lure	n/a	n/a	n/a	1
278.371	0.466765657	WATCHMAN	lure	n/a	n/a	n/a	1
278.838	0.516551916	GAGE	lure	n/a	n/a	n/a	1
279.354	0.520031291	DERIVATION	lure	n/a	n/a	n/a	1
279.874	0.529958943	PARANOIA	lure	n/a	n/a	n/a	1
280.404	0.683321869	REPEATER	lure	n/a	n/a	n/a	1
281.088	0.64998702	FOREWORD	lure	n/a	n/a	n/a	1
281.738	0.48332859	OBSCENITY	lure	n/a	n/a	n/a	1
282.221	0.616661739	NIGHTSHIRT	lure	n/a	n/a	n/a	1
282.838	0.616653893	ORNAMENT	short	n/a	n/a	n/a	1
283.454	0.616722868	SERENITY	lure	n/a	n/a	n/a	1
284.071	0.416598515	RESIDENCE	lure	n/a	n/a	n/a	1
284.488	0.766657028	SAX	lure	n/a	n/a	n/a	1
285.254	0.516655114	ABRASION	lure	n/a	n/a	n/a	1
285.771	0.349997883	TRINITY	lure	n/a	n/a	n/a	1
286.121	0.566661537	SPIRIT	lure	n/a	n/a	n/a	1
286.688	0.35003251	OPIATE	lure	n/a	n/a	n/a	1
287.038	0.63332354	COALITION	lure	n/a	n/a	n/a	1
287.671	0.666621604	MISCALL	lure	n/a	n/a	n/a	1
288.338	0.333363673	PARADIGM	lure	n/a	n/a	n/a	1
288.671	0.449956527	ONLOOKER	lure	n/a	n/a	n/a	1
289.121	0.699992759	SHRINKAGE	lure	n/a	n/a	n/a	1
289.821	0.633324402	SECURITY	lure	n/a	n/a	n/a	1
290.454	0.349989057	PRETENCE	lure	n/a	n/a	n/a	1
290.804	0.566666569	HAMSTER	lure	n/a	n/a	n/a	1
291.371	1.016650691	APPLE	fruit	n/a	n/a	2	0
292.388	0.366657649	BARBARIAN	lure	n/a	n/a	n/a	1
292.754	0.483325389	MAJORITY	lure	n/a	n/a	n/a	1
293.238	0.616662741	NUMERAL	lure	n/a	n/a	n/a	1
293.854	0.433328336	CAPACITOR	lure	n/a	n/a	n/a	1
294.288	0.749990334	EXPANSION	lure	n/a	n/a	n/a	1
295.038	0.43332617	PAINTBRUSH	lure	n/a	n/a	n/a	1
295.471	0.583321457	COURIER	lure	n/a	n/a	n/a	1
296.054	0.583323352	EARPIECE	lure	n/a	n/a	n/a	1
296.638	0.749990085	MIXTURE	lure	n/a	n/a	n/a	1
297.388	0.516664906	APRICOT	lure	n/a	n/a	n/a	1
297.904	0.633322422	BLURB	lure	94	2	n/a	0
298.537	0.599994467	WASTEWATER	lure	n/a	n/a	n/a	1
299.137	0.383325591	OUTBACK	lure	n/a	n/a	n/a	1
299.521	0.616654835	PLANK	short	n/a	n/a	n/a	1
300.137	0.733327417	DOWNER	lure	n/a	n/a	n/a	1
300.871	0.399989218	BIRTHMARK	lure	n/a	n/a	n/a	1
301.271	0.733325088	BLOWBACK	lure	n/a	n/a	n/a	1
302.004	0.333330443	LAMPPOST	lure	n/a	n/a	n/a	1
302.337	0.70152203	METAPHYSIC	lure	n/a	n/a	n/a	1
303.039	0.598460507	FOXGLOVE	lure	n/a	n/a	n/a	1
303.637	0.533322284	FOE	lure	n/a	n/a	n/a	1
304.171	0.433329021	SWEATSHOP	lure	n/a	n/a	n/a	1
304.604	0.583323466	ACCENT	lure	n/a	n/a	n/a	1
305.187	0.333328816	DOORMAN	lure	n/a	n/a	n/a	1
305.521	0.566659501	EROSION	lure	n/a	n/a	n/a	1
306.087	0.3333312	SUSPENSE	lure	n/a	n/a	n/a	1
306.421	0.58332215	PATROLMAN	lure	n/a	n/a	n/a	1
307.004	0.587400679	LETTERBOX	lure	n/a	n/a	n/a	1
307.591	2.01360045	LIGHT	long	n/a	n/a	n/a	1
309.605	0.732294184	FORESTRY	lure	n/a	n/a	n/a	1
310.337	0.449989418	PLASTICITY	lure	n/a	n/a	n/a	1
310.787	0.399991462	SILICA	lure	n/a	n/a	n/a	1
311.187	0.516658921	RESENTMENT	lure	n/a	n/a	n/a	1
311.704	0.683325902	PSYCHO	lure	n/a	n/a	n/a	1
312.387	0.549994053	ESTIMATION	lure	n/a	n/a	n/a	1
312.937	0.735652303	LAMP	lure	n/a	n/a	n/a	1
313.673	0.414329306	KITTY	lure	n/a	n/a	n/a	1
314.087	0.583325316	WHALEBONE	lure	n/a	n/a	n/a	1
314.671	0.416661146	SIDELIGHT	lure	n/a	n/a	n/a	1
315.087	0.749988091	FRIDGE	lure	n/a	n/a	n/a	1
315.837	2.016644358	CENT	long	n/a	n/a	n/a	1
317.854	0.550029936	BUFFOON	lure	n/a	n/a	n/a	1
318.404	0.566616134	BRIBERY	lure	n/a	n/a	n/a	1
318.971	0.433327029	FEVER	lure	n/a	n/a	n/a	1
319.404	0.483329168	STRETCHER	lure	n/a	n/a	n/a	1
319.887	0.399991885	PHONECALL	lure	n/a	n/a	n/a	1
320.287	0.466667174	CONCUSSION	lure	n/a	n/a	n/a	1
320.754	0.616656444	ARCADE	lure	n/a	n/a	n/a	1
321.371	0.716651587	BRICKLAYER	lure	n/a	n/a	n/a	1
322.087	0.583324997	PODIUM	lure	n/a	n/a	n/a	1
322.67	0.56666457	BLOODHOUND	lure	n/a	n/a	n/a	1
323.237	0.40038082	STARDUST	lure	n/a	n/a	n/a	1
323.638	2.016249023	PHOTO	long	n/a	n/a	n/a	1
325.654	0.316660494	REPENTANCE	lure	n/a	n/a	n/a	1
325.97	0.604276485	IGUANA	lure	n/a	n/a	n/a	1
326.575	0.345715663	KILOMETER	lure	n/a	n/a	n/a	1
326.92	0.349989789	ECTOPLASM	lure	n/a	n/a	n/a	1
327.27	0.416660323	GUn/aOOM	lure	n/a	n/a	n/a	1
327.687	0.633326848	FRIGHT	lure	n/a	n/a	n/a	1
328.32	0.616658543	PEANUT	lure	n/a	n/a	n/a	1
328.937	0.467205366	FALSITY	lure	n/a	n/a	n/a	1
329.404	0.666111699	TRILOGY	lure	n/a	n/a	n/a	1
330.07	0.633367885	REPAST	lure	n/a	n/a	n/a	1
330.704	0.66661436	AMBULANCE	lure	n/a	n/a	n/a	1
331.37	0.650043059	WHOPPER	lure	n/a	n/a	n/a	1
332.02	0.616610721	BROOM	short	n/a	n/a	n/a	1
332.637	0.516655237	BOUILLON	lure	n/a	n/a	n/a	1
333.154	0.666659503	STICKLER	lure	n/a	n/a	n/a	1
333.82	0.316664191	RITZ	lure	n/a	n/a	n/a	1
334.137	0.699989801	STANCE	lure	n/a	n/a	n/a	1
334.837	0.516654245	HARDWOOD	lure	n/a	n/a	n/a	1
335.354	0.649991147	POCKETBOOK	lure	n/a	n/a	n/a	1
336.004	0.499994667	RAINBOW	lure	n/a	n/a	n/a	1
336.504	0.566656353	SLIPKNOT	lure	n/a	n/a	n/a	1
337.07	0.499993534	DRAGONFLY	lure	n/a	n/a	n/a	1
337.57	0.716660823	SIDELINE	lure	n/a	n/a	n/a	1
338.287	0.6205012	CONTINUITY	lure	n/a	n/a	n/a	1
338.907	0.379488063	REPAIRMEN	lure	n/a	n/a	n/a	1
339.287	0.616654069	SHRIMP	lure	n/a	n/a	n/a	1
339.904	0.333331451	PISTON	lure	n/a	n/a	n/a	1
340.237	1.016649462	STRAWBERRY	fruit	570	2	2	1
341.254	0.516657061	GALE	lure	n/a	n/a	n/a	1
341.77	0.486114176	CEREAL	lure	n/a	n/a	n/a	1
342.256	0.463878831	STINT	lure	n/a	n/a	n/a	1
342.72	0.449992537	COVERALL	lure	n/a	n/a	n/a	1
343.17	0.749989421	STOREROOM	lure	n/a	n/a	n/a	1
343.92	0.44999301	SALVATION	lure	n/a	n/a	n/a	1
344.37	0.716652806	MOTIF	lure	n/a	n/a	n/a	1
345.087	0.533333176	CARTOON	lure	n/a	n/a	n/a	1
345.62	0.483319671	AUTHORSHIP	lure	n/a	n/a	n/a	1
346.104	0.316661903	SIDEBOARD	lure	n/a	n/a	n/a	1
346.42	0.499997346	UNDERSHIRT	lure	n/a	n/a	n/a	1
346.92	0.53332406	ELEGANCE	lure	n/a	n/a	n/a	1
347.453	0.333331663	ENAMEL	lure	n/a	n/a	n/a	1
347.787	0.816653853	NEIGHBOR	lure	n/a	n/a	n/a	1
348.603	0.500672571	SCRIPT	lure	n/a	n/a	n/a	1
349.104	0.615981389	ISLAND	short	n/a	n/a	n/a	1
349.72	0.49998737	DUKE	lure	n/a	n/a	n/a	1
350.22	0.366661478	NATURE	lure	n/a	n/a	n/a	1
350.587	0.683328092	FINALE	lure	n/a	n/a	n/a	1
351.27	0.499993282	VALIDATION	lure	n/a	n/a	n/a	1
351.77	0.549987949	PROPANE	lure	n/a	n/a	n/a	1
352.32	0.599993384	WHISKY	lure	n/a	n/a	n/a	1
352.92	0.666655828	WHIPLASH	lure	n/a	n/a	n/a	1
353.587	0.39999734	HELM	lure	n/a	n/a	n/a	1
353.987	0.366657942	LESSON	lure	n/a	n/a	n/a	1
354.353	0.69999298	TERRITORY	lure	n/a	n/a	n/a	1
355.053	0.483325899	LOAFER	lure	n/a	n/a	n/a	1
355.537	0.449995963	VEHICLE	lure	n/a	n/a	n/a	1
355.987	0.399994936	RECEPTION	lure	n/a	n/a	n/a	1
356.387	0.699987908	BUNT	lure	n/a	n/a	n/a	1
357.087	0.716654491	VOUCHER	lure	n/a	n/a	n/a	1
357.803	1.016657009	ELDERBERRY	fruit	651	2	2	1
358.82	0.634967811	MOKE	lure	n/a	n/a	n/a	1
359.455	0.748345808	VOYEUR	lure	n/a	n/a	n/a	1
360.203	0.483325485	DEPUTY	lure	n/a	n/a	n/a	1
360.687	0.749991349	GIBLET	lure	n/a	n/a	n/a	1
361.437	0.733324041	CELEBRITY	lure	n/a	n/a	n/a	1
362.17	0.666656815	CLEMENCY	lure	n/a	n/a	n/a	1
362.837	0.750028815	BUOYANCY	lure	n/a	n/a	n/a	1
363.587	0.599949195	CABOOSE	lure	n/a	n/a	n/a	1
364.187	0.64999519	CONFLUENCE	lure	n/a	n/a	n/a	1
364.837	0.449995163	DAYBED	lure	n/a	n/a	n/a	1
365.287	0.433323949	INHABITANT	lure	n/a	n/a	n/a	1
365.72	0.549993319	SHOESTRING	lure	n/a	n/a	n/a	1
366.27	0.616659568	PANEL	short	n/a	n/a	n/a	1
366.887	0.383328876	CELLULOSE	lure	n/a	n/a	n/a	1
367.27	0.649988102	DIVINITY	lure	n/a	n/a	n/a	1
367.92	0.533363483	TECH	lure	n/a	n/a	n/a	1
368.453	0.533291201	CLIMATE	lure	n/a	n/a	n/a	1
368.987	0.549992215	PLASM	lure	n/a	n/a	n/a	1
369.537	0.417038236	DISHARMONY	lure	n/a	n/a	n/a	1
369.954	0.516281761	CHIEFTAIN	lure	n/a	n/a	n/a	1
370.47	0.483362385	GRANDEUR	lure	n/a	n/a	n/a	1
370.953	0.649956271	HEADGEAR	lure	n/a	n/a	n/a	1
371.603	0.483321838	SURVIVAL	lure	n/a	n/a	n/a	1
372.086	0.383331841	DAME	lure	n/a	n/a	n/a	1
372.47	0.316711874	GIMMICK	lure	n/a	n/a	n/a	1
372.787	0.733271532	EXPO	lure	n/a	n/a	n/a	1
373.52	0.466657479	HALL	lure	n/a	n/a	n/a	1
373.986	0.333335056	FLOATER	lure	n/a	n/a	n/a	1
374.32	2.016632736	BELL	long	n/a	n/a	n/a	1
376.336	0.333329945	STREETCAR	lure	n/a	n/a	n/a	1
376.67	0.549991024	SLAB	lure	n/a	n/a	n/a	1
377.22	0.566717613	MANPOWER	lure	n/a	n/a	n/a	1
377.786	0.549933614	LINEAGE	lure	n/a	n/a	n/a	1
378.336	0.483378375	EXECUTOR	lure	n/a	n/a	n/a	1
378.82	0.399943545	DECORUM	lure	n/a	n/a	n/a	1
379.22	0.466699994	HANDYMEN	lure	n/a	n/a	n/a	1
379.686	0.766619722	SWINGER	lure	n/a	n/a	n/a	1
380.453	0.54998889	MALLET	lure	n/a	n/a	n/a	1
381.003	0.333328111	SEMICOLON	lure	n/a	n/a	n/a	1
381.336	0.633330712	SHRUB	lure	n/a	n/a	n/a	1
381.97	0.433322256	BOn/aZA	lure	n/a	n/a	n/a	1
382.403	1.050047998	PLUM	fruit	n/a	n/a	2	0
383.453	0.48422615	EXPRESSION	lure	194	2	n/a	0
383.937	0.632421346	SPINE	lure	n/a	n/a	n/a	1
384.57	0.749932624	CLOWN	lure	n/a	n/a	n/a	1
385.32	0.616704397	SMOKER	lure	n/a	n/a	n/a	1
385.936	0.516615105	WHEELBASE	lure	n/a	n/a	n/a	1
386.453	0.549993052	OBVERSE	lure	n/a	n/a	n/a	1
387.003	0.666659642	CAPITALISM	lure	n/a	n/a	n/a	1
387.67	0.483326916	VULTURE	lure	n/a	n/a	n/a	1
388.153	0.566700201	AFFLUENCE	lure	n/a	n/a	n/a	1
388.72	0.583338548	BATON	lure	n/a	n/a	n/a	1
389.303	0.41664923	TUTORIAL	lure	n/a	n/a	n/a	1
389.72	0.686340389	CLOTH	lure	n/a	n/a	n/a	1
390.406	0.346932214	SELLER	lure	n/a	n/a	n/a	1
390.753	0.616659308	RIDGE	short	n/a	n/a	n/a	1
391.37	0.699992586	PAPERWORK	lure	n/a	n/a	n/a	1
392.07	0.65003609	ASSESSMENT	lure	n/a	n/a	n/a	1
392.72	0.383283536	MAINSTAY	lure	n/a	n/a	n/a	1
393.103	0.333328142	ALTO	lure	n/a	n/a	n/a	1
393.436	0.666655663	WINDSOCK	lure	n/a	n/a	n/a	1
394.103	0.399993654	DESOLATION	lure	n/a	n/a	n/a	1
394.503	0.416661283	SALTWATER	lure	n/a	n/a	n/a	1
394.92	0.43337364	NONFICTION	lure	n/a	n/a	n/a	1
395.353	0.71661254	LIEU	lure	n/a	n/a	n/a	1
396.069	0.333328262	PRESTIGE	lure	n/a	n/a	n/a	1
396.403	0.700037146	GUNPLAY	lure	n/a	n/a	n/a	1
397.103	0.366615142	ZEAL	lure	n/a	n/a	n/a	1
397.469	0.600035702	VOLLEYBALL	lure	n/a	n/a	n/a	1
398.07	0.449995282	En/aOLLMENT	lure	n/a	n/a	n/a	1
398.519	0.499940808	ABBOT	lure	n/a	n/a	n/a	1
399.019	2.066641402	WAGON	long	n/a	n/a	n/a	1
401.086	0.68332902	PUPPY	lure	n/a	n/a	n/a	1
401.769	0.583324733	CUPID	lure	n/a	n/a	n/a	1
402.353	0.549984675	DUTY	lure	n/a	n/a	n/a	1
402.903	0.599997798	HURRICANE	lure	n/a	n/a	n/a	1
403.503	0.733320961	WATCHTOWER	lure	n/a	n/a	n/a	1
404.236	0.716657054	EVANGELIST	lure	n/a	n/a	n/a	1
404.953	0.366663927	INSTIGATOR	lure	n/a	n/a	n/a	1
405.319	0.316655667	RUGBY	lure	n/a	n/a	n/a	1
405.636	0.416664921	RESOURCE	lure	n/a	n/a	n/a	1
406.053	0.69999151	FOREST	lure	n/a	n/a	n/a	1
406.753	0.63332547	BRAILLE	lure	n/a	n/a	n/a	1
407.386	0.61666805	STICK	short	n/a	n/a	n/a	1
408.003	0.499978812	LEADERSHIP	lure	n/a	n/a	n/a	1
408.503	0.316663794	SAILCLOTH	lure	n/a	n/a	n/a	1
408.819	0.449995949	INHIBITOR	lure	n/a	n/a	n/a	1
409.269	0.399993189	BISCUIT	lure	n/a	n/a	n/a	1
409.669	0.716659809	CAMEL	lure	n/a	n/a	n/a	1
410.386	0.583327142	ACTOR	lure	n/a	n/a	n/a	1
410.969	0.366655944	RUBDOWN	lure	n/a	n/a	n/a	1
411.336	0.666658837	PAVEMENT	lure	n/a	n/a	n/a	1
412.003	0.383332979	ROUGHNECK	lure	n/a	n/a	n/a	1
412.386	0.699990235	WALKOVER	lure	n/a	n/a	n/a	1
413.086	0.533319671	BRAVADO	lure	n/a	n/a	n/a	1
413.619	0.633325389	SHOWDOWN	lure	n/a	n/a	n/a	1
414.253	0.566655516	HOGWASH	lure	n/a	n/a	n/a	1
414.819	0.53332878	CHAPERONE	lure	n/a	n/a	n/a	1
415.353	0.616663852	MATTER	short	n/a	n/a	n/a	1
415.969	0.633318067	MAKER	lure	n/a	n/a	n/a	1
416.603	0.44999865	ANTELOPE	lure	n/a	n/a	n/a	1
417.053	0.399989743	EMBOLISM	lure	n/a	n/a	n/a	1
417.453	0.683331185	SUBSCRIBER	lure	n/a	n/a	n/a	1
418.136	0.433317468	CORONET	lure	n/a	n/a	n/a	1
418.569	0.533326083	PATIENCE	lure	n/a	n/a	n/a	1
419.102	0.749996132	WIGHT	lure	n/a	n/a	n/a	1
419.852	0.316659068	RETAIL	lure	n/a	n/a	n/a	1
420.169	0.716664202	DIPLOMACY	lure	n/a	n/a	n/a	1
420.886	0.466660235	PROCURATOR	lure	n/a	n/a	n/a	1
421.352	0.516651657	PLAYTIME	lure	n/a	n/a	n/a	1
421.869	0.43332888	CRACKER	lure	n/a	n/a	n/a	1
422.302	0.699990125	FREEZER	lure	n/a	n/a	n/a	1
423.002	0.516658184	BREADFRUIT	lure	n/a	n/a	n/a	1
423.519	2.016639265	LABEL	long	n/a	n/a	n/a	1
425.536	0.499993346	SKIT	lure	n/a	n/a	n/a	1
426.036	0.616656385	LANGUAGE	lure	n/a	n/a	n/a	1
426.652	0.599995182	INNOCENCE	lure	n/a	n/a	n/a	1
427.252	0.616659518	SUBSYSTEM	lure	n/a	n/a	n/a	1
427.869	0.600156986	RECOURSE	lure	n/a	n/a	n/a	1
428.469	0.566492454	INVENTION	lure	n/a	n/a	n/a	1
429.036	0.649986679	LICENSEE	lure	n/a	n/a	n/a	1
429.686	0.683322265	GARNET	lure	n/a	n/a	n/a	1
430.369	0.5333265	FERRYMAN	lure	n/a	n/a	n/a	1
430.902	0.649995679	IMITATION	lure	n/a	n/a	n/a	1
431.552	0.516659229	EDITORSHIP	lure	n/a	n/a	n/a	1
432.069	2.016638022	SPEAR	long	n/a	n/a	n/a	1
434.086	0.666697811	ANCESTOR	lure	n/a	n/a	n/a	1
434.752	0.683283912	SUBURB	lure	n/a	n/a	n/a	1
435.436	0.533327691	HOG	lure	n/a	n/a	n/a	1
435.969	0.449992268	PRINCIPLE	lure	n/a	n/a	n/a	1
436.419	0.583325423	SANDBOX	lure	n/a	n/a	n/a	1
437.002	0.716722242	COAL	lure	n/a	n/a	n/a	1
437.719	0.683260914	SACRILEGE	lure	n/a	n/a	n/a	1
438.402	0.599988256	TALON	lure	n/a	n/a	n/a	1
439.002	0.383328878	ANTIDOTE	lure	n/a	n/a	n/a	1
439.386	0.636829867	CAMPGROUND	lure	n/a	n/a	n/a	1
440.022	0.329822626	WINGSPREAD	lure	n/a	n/a	n/a	1
440.352	2.016640992	CHISEL	long	n/a	n/a	n/a	1
442.369	0.466659727	CRADLE	lure	n/a	n/a	n/a	1
442.836	0.38332874	CARPORT	lure	n/a	n/a	n/a	1
443.219	0.333324809	WASP	lure	n/a	n/a	n/a	1
443.552	0.716660133	KNOCKER	lure	n/a	n/a	n/a	1
444.269	0.433381224	WHIRLPOOL	lure	n/a	n/a	n/a	1
444.702	0.700681214	MISTRIAL	lure	n/a	n/a	n/a	1
445.403	0.753568938	WOMENFOLK	lure	n/a	n/a	n/a	1
446.156	0.595667771	FRAGILITY	lure	n/a	n/a	n/a	1
446.752	0.733318755	BOUNDARY	lure	n/a	n/a	n/a	1
447.485	0.53332802	STEPLADDER	lure	n/a	n/a	n/a	1
448.019	0.399993964	BEEFSTEAK	lure	n/a	n/a	n/a	1
448.419	0.616662274	CYCLONE	short	n/a	n/a	n/a	1
449.035	0.500043092	SUBMARINE	lure	n/a	n/a	n/a	1
449.535	0.69993842	SCOREBOARD	lure	n/a	n/a	n/a	1
450.235	0.733323303	GAG	lure	n/a	n/a	n/a	1
450.969	0.499993215	IRONY	lure	n/a	n/a	n/a	1
451.469	0.349995789	VACANCY	lure	n/a	n/a	n/a	1
451.819	0.349995789	RESERVOIR	lure	n/a	n/a	n/a	1
452.169	0.733324024	SALIVATION	lure	n/a	n/a	n/a	1
452.902	0.449993569	REINDEER	lure	n/a	n/a	n/a	1
453.352	0.733317825	ORCHID	lure	n/a	n/a	n/a	1
454.085	0.366666037	LIQUEUR	lure	n/a	n/a	n/a	1
454.452	0.349990896	SOMBRERO	lure	n/a	n/a	n/a	1
454.802	0.433330718	OVERSPILL	lure	n/a	n/a	n/a	1
455.235	0.36666087	BRAWN	lure	n/a	n/a	n/a	1
455.602	0.516662138	BEDSPREAD	lure	n/a	n/a	n/a	1
456.119	0.46665846	SUPERNOVA	lure	n/a	n/a	n/a	1
456.585	0.399992974	CONQUEROR	lure	n/a	n/a	n/a	1
456.985	0.749990419	IMMODESTY	lure	n/a	n/a	n/a	1
457.735	0.650045999	WATCHMEN	lure	n/a	n/a	n/a	1
458.385	0.516604839	GUSHER	lure	n/a	n/a	n/a	1
458.902	0.350035584	DINNERWARE	lure	n/a	n/a	n/a	1
459.252	0.516616052	VIRILITY	lure	n/a	n/a	n/a	1
459.769	0.799993592	FLATFOOT	lure	n/a	n/a	n/a	1
460.569	0.51665673	KNAPSACK	lure	n/a	n/a	n/a	1
461.085	0.649988376	DYNAMISM	lure	n/a	n/a	n/a	1
461.735	0.666658395	GOOSE	lure	n/a	n/a	n/a	1
462.402	0.733325551	VALOR	lure	n/a	n/a	n/a	1
463.135	0.566844875	ULTIMATUM	lure	n/a	n/a	n/a	1
463.702	0.586574816	PETTICOAT	lure	n/a	n/a	n/a	1
464.289	0.399562525	JUDGMENT	lure	n/a	n/a	n/a	1
464.688	n/a	BREAKAWAY	lure	n/a	n/a	n/a	1