onset	duration	cond	RT	resp	cresp	acc
5.003	0.917	face	n/a	n/a	n/a	1
6.003	0.917	face	n/a	n/a	n/a	1
7.003	0.917	face	682	2	2	1
8.003	0.917	face	n/a	n/a	n/a	1
9.003	0.918	face	674	2	2	1
10.003	0.9	face	n/a	n/a	n/a	1
11.003	0.917	face	n/a	n/a	n/a	1
12.003	0.917	face	n/a	n/a	n/a	1
13.003	0.917	face	538	2	2	1
14.003	0.917	face	n/a	n/a	n/a	1
15.003	0.917	face	618	2	2	1
16.003	0.917	face	n/a	n/a	n/a	1
17.003	0.917	face	650	2	2	1
18.003	0.917	face	n/a	n/a	n/a	1
19.003	0.917	face	n/a	n/a	n/a	1
20.003	0.917	face	n/a	n/a	2	0
31.053	0.917	word	n/a	n/a	n/a	1
32.003	0.917	word	n/a	n/a	n/a	1
33.003	0.917	word	466	2	2	1
34.003	0.917	word	n/a	n/a	n/a	1
35.003	0.917	word	530	2	2	1
36.003	0.917	word	n/a	n/a	n/a	1
37.003	0.917	word	n/a	n/a	n/a	1
38.003	0.917	word	458	2	2	1
39.003	0.9	word	n/a	n/a	n/a	1
40.003	0.917	word	n/a	n/a	n/a	1
41.003	0.917	word	n/a	n/a	n/a	1
42.003	0.917	word	442	2	2	1
43.003	0.917	word	n/a	n/a	n/a	1
44.003	0.917	word	538	2	2	1
45.003	0.9	word	n/a	n/a	n/a	1
46.003	0.9	word	562	2	2	1
57.036	0.917	car	n/a	n/a	n/a	1
58.003	0.917	car	n/a	n/a	n/a	1
59.003	0.918	car	418	2	2	1
60.003	0.917	car	n/a	n/a	n/a	1
61.003	0.917	car	410	2	2	1
62.003	0.917	car	n/a	n/a	n/a	1
63.003	0.917	car	530	2	2	1
64.003	0.917	car	n/a	n/a	n/a	1
65.003	0.917	car	n/a	n/a	n/a	1
66.003	0.917	car	n/a	n/a	2	0
67.003	0.917	car	578	2	n/a	0
68.003	0.917	car	842	2	2	1
69.003	0.917	car	n/a	n/a	n/a	1
70.003	0.917	car	618	2	2	1
71.003	0.917	car	n/a	n/a	n/a	1
72.003	0.917	car	n/a	n/a	n/a	1
83.052	0.9	scene	n/a	n/a	n/a	1
84.002	0.917	scene	691	2	2	1
85.002	0.917	scene	n/a	n/a	n/a	1
86.002	0.917	scene	n/a	n/a	n/a	1
87.002	0.9	scene	n/a	n/a	n/a	1
88.002	0.9	scene	n/a	n/a	n/a	1
89.007	0.912	scene	446	2	2	1
90.002	0.9	scene	n/a	n/a	n/a	1
91.002	0.917	scene	515	2	2	1
92.002	0.9	scene	n/a	n/a	n/a	1
93.006	0.912	scene	n/a	n/a	n/a	1
94.002	0.917	scene	451	2	2	1
95.002	0.917	scene	n/a	n/a	n/a	1
96.002	0.917	scene	731	2	2	1
97.002	0.917	scene	n/a	n/a	n/a	1
98.002	0.917	scene	475	2	2	1
109.052	0.917	face	n/a	n/a	n/a	1
110.002	0.917	face	627	2	2	1
111.002	0.917	face	n/a	n/a	n/a	1
112.002	0.917	face	419	2	2	1
113.002	0.917	face	n/a	n/a	n/a	1
114.002	0.9	face	363	2	2	1
115.002	0.917	face	n/a	n/a	n/a	1
116.002	0.917	face	n/a	n/a	n/a	1
117.002	0.917	face	n/a	n/a	n/a	1
118.002	0.917	face	475	2	2	1
119.002	0.917	face	n/a	n/a	n/a	1
120.002	0.917	face	443	2	2	1
121.002	0.917	face	n/a	n/a	n/a	1
122.002	0.917	face	n/a	n/a	n/a	1
123.002	0.917	face	n/a	n/a	2	0
124.002	0.917	face	n/a	n/a	n/a	1
135.068	0.9	scene	n/a	n/a	n/a	1
136.002	0.917	scene	491	2	2	1
137.002	0.917	scene	n/a	n/a	n/a	1
138.002	0.917	scene	395	2	2	1
139.002	0.917	scene	n/a	n/a	n/a	1
140.002	0.917	scene	n/a	n/a	n/a	1
141.002	0.917	scene	755	2	2	1
142.002	0.917	scene	n/a	n/a	n/a	1
143.002	0.917	scene	427	2	2	1
144.001	0.9	scene	n/a	n/a	n/a	1
145.001	0.917	scene	n/a	n/a	n/a	1
146.002	0.917	scene	n/a	n/a	n/a	1
147.001	0.917	scene	n/a	n/a	n/a	1
148.001	0.917	scene	411	2	2	1
149.001	0.917	scene	n/a	n/a	n/a	1
150.001	0.917	scene	468	2	2	1
161.069	0.916	car	n/a	n/a	n/a	1
162.018	0.917	car	n/a	n/a	n/a	1
163.001	0.917	car	n/a	n/a	n/a	1
164.001	0.917	car	548	2	2	1
165.001	0.917	car	n/a	n/a	n/a	1
166.001	0.917	car	n/a	n/a	n/a	1
167.001	0.917	car	844	2	2	1
168.001	0.917	car	n/a	n/a	n/a	1
169.001	0.917	car	508	2	2	1
170.001	0.917	car	n/a	n/a	n/a	1
171.001	0.917	car	540	2	2	1
172.001	0.917	car	n/a	n/a	n/a	1
173.001	0.917	car	n/a	n/a	n/a	1
174.001	0.917	car	532	2	2	1
175.001	0.917	car	n/a	n/a	n/a	1
176.001	0.917	car	404	2	2	1
187.068	0.917	word	n/a	n/a	n/a	1
188.018	0.917	word	483	2	2	1
189.001	0.917	word	n/a	n/a	n/a	1
190.001	0.917	word	340	2	2	1
191.001	0.917	word	n/a	n/a	n/a	1
192.001	0.917	word	n/a	n/a	n/a	1
193.001	0.917	word	n/a	n/a	n/a	1
194.001	0.917	word	n/a	n/a	n/a	1
195.001	0.917	word	532	2	2	1
196.001	0.917	word	n/a	n/a	n/a	1
197.001	0.9	word	340	2	2	1
198.001	0.917	word	n/a	n/a	n/a	1
199.001	0.917	word	372	2	2	1
200.001	0.917	word	n/a	n/a	n/a	1
201.001	0.917	word	404	2	2	1
202.001	0.917	word	n/a	n/a	n/a	1
213.067	0.917	face	n/a	n/a	n/a	1
214.017	0.917	face	556	2	2	1
215.001	0.917	face	n/a	n/a	n/a	1
216.001	0.917	face	n/a	n/a	n/a	1
217	0.917	face	n/a	n/a	n/a	1
218	0.9	face	533	2	2	1
219.017	0.917	face	n/a	n/a	n/a	1
220	0.9	face	n/a	n/a	n/a	1
221.017	0.917	face	508	2	2	1
222	0.917	face	n/a	n/a	n/a	1
223	0.917	face	413	2	2	1
224	0.917	face	n/a	n/a	n/a	1
225	0.917	face	317	2	2	1
226	0.917	face	n/a	n/a	n/a	1
227	0.917	face	533	2	2	1
228	0.917	face	n/a	n/a	n/a	1
239.067	0.917	car	n/a	n/a	n/a	1
240.017	0.917	car	n/a	n/a	n/a	1
241	0.917	car	413	2	n/a	0
242	0.917	car	901	2	2	1
243	0.917	car	n/a	n/a	n/a	1
244	0.9	car	n/a	n/a	n/a	1
245	0.917	car	453	2	2	1
246	0.917	car	n/a	n/a	n/a	1
247	0.917	car	533	2	2	1
248	0.917	car	n/a	n/a	n/a	1
249	0.917	car	n/a	n/a	n/a	1
250	0.917	car	485	2	2	1
251	0.917	car	n/a	n/a	n/a	1
252	0.917	car	397	2	2	1
253	0.917	car	n/a	n/a	n/a	1
254	0.917	car	461	2	2	1
265.069	0.914	scene	n/a	n/a	n/a	1
266.016	0.917	scene	n/a	n/a	n/a	1
267	0.917	scene	n/a	n/a	n/a	1
268	0.919	scene	573	2	2	1
269	0.917	scene	n/a	n/a	n/a	1
270	0.917	scene	533	2	2	1
271	0.9	scene	n/a	n/a	n/a	1
272	0.917	scene	445	2	2	1
273	0.917	scene	n/a	n/a	n/a	1
274	0.917	scene	405	2	2	1
275	0.917	scene	n/a	n/a	n/a	1
276	0.917	scene	517	2	2	1
277	0.917	scene	n/a	n/a	n/a	1
278	0.919	scene	541	2	2	1
279	0.917	scene	n/a	n/a	n/a	1
280	0.917	scene	n/a	n/a	n/a	1
291.066	0.917	word	n/a	n/a	n/a	1
292.016	0.917	word	405	2	2	1
292.999	0.9	word	n/a	n/a	n/a	1
293.999	0.917	word	n/a	n/a	n/a	1
294.999	0.917	word	502	2	2	1
295.999	0.917	word	n/a	n/a	n/a	1
296.999	0.917	word	478	2	2	1
298.004	0.912	word	n/a	n/a	n/a	1
298.999	0.917	word	414	2	2	1
300.016	0.917	word	n/a	n/a	n/a	1
300.999	0.917	word	414	2	2	1
301.999	0.917	word	n/a	n/a	n/a	1
303.016	0.9	word	n/a	n/a	n/a	1
303.999	0.9	word	n/a	n/a	n/a	1
304.999	0.917	word	606	2	2	1
305.999	0.917	word	n/a	n/a	n/a	1
317.069	0.913	scene	n/a	n/a	n/a	1
318.016	0.917	scene	437	2	2	1
318.999	0.9	scene	n/a	n/a	n/a	1
319.999	0.917	scene	n/a	n/a	n/a	1
320.999	0.917	scene	n/a	n/a	n/a	1
321.999	0.917	scene	n/a	n/a	n/a	1
322.999	0.917	scene	422	2	2	1
323.999	0.917	scene	n/a	n/a	n/a	1
324.999	0.917	scene	430	2	2	1
325.999	0.917	scene	n/a	n/a	n/a	1
327.016	0.917	scene	429	2	2	1
327.999	0.917	scene	n/a	n/a	n/a	1
328.999	0.9	scene	n/a	n/a	n/a	1
329.999	0.917	scene	606	2	2	1
330.999	0.917	scene	n/a	n/a	n/a	1
331.999	0.919	scene	462	2	2	1
343.065	0.917	word	n/a	n/a	n/a	1
344.032	0.917	word	589	2	2	1
344.999	0.92	word	n/a	n/a	n/a	1
345.999	0.917	word	422	2	2	1
346.999	0.917	word	n/a	n/a	n/a	1
347.999	0.917	word	342	2	2	1
348.999	0.917	word	n/a	n/a	n/a	1
349.999	0.917	word	454	2	2	1
350.999	0.917	word	n/a	n/a	n/a	1
352.015	0.917	word	n/a	n/a	n/a	1
352.999	0.917	word	n/a	n/a	n/a	1
353.999	0.917	word	510	2	2	1
354.999	0.9	word	n/a	n/a	n/a	1
356.015	0.917	word	n/a	n/a	n/a	1
356.999	0.917	word	n/a	n/a	2	0
357.999	0.9	word	n/a	n/a	n/a	1
369.05	0.915	car	n/a	n/a	n/a	1
370.015	0.917	car	n/a	n/a	n/a	1
370.998	0.917	car	n/a	n/a	n/a	1
371.998	0.917	car	447	2	2	1
372.998	0.917	car	n/a	n/a	n/a	1
374.348	0.917	car	841	2	2	1
375.315	0.917	car	n/a	n/a	n/a	1
376.282	0.917	car	n/a	n/a	n/a	1
377.248	0.917	car	501	2	2	1
378.215	0.917	car	n/a	n/a	n/a	1
379.182	0.917	car	n/a	n/a	n/a	1
380.148	0.917	car	473	2	2	1
381.115	0.917	car	n/a	n/a	n/a	1
382.082	0.917	car	515	2	2	1
383.048	0.917	car	n/a	n/a	n/a	1
384.015	0.9	car	462	2	2	1
395.065	0.917	face	n/a	n/a	n/a	1
396.031	0.917	face	n/a	n/a	n/a	1
397.015	0.917	face	454	2	2	1
398.015	0.917	face	n/a	n/a	n/a	1
398.998	0.917	face	n/a	n/a	n/a	1
400.015	0.917	face	422	2	2	1
401.015	0.917	face	n/a	n/a	n/a	1
402.015	0.917	face	374	2	2	1
403.015	0.917	face	n/a	n/a	n/a	1
404.015	0.917	face	391	2	2	1
405.015	0.917	face	n/a	n/a	n/a	1
406.015	0.917	face	n/a	n/a	n/a	1
407.015	0.917	face	n/a	n/a	n/a	1
408.014	0.917	face	415	2	2	1
409.014	0.9	face	n/a	n/a	n/a	1
410.014	0.917	face	383	2	2	1
421.086	0.912	face	n/a	n/a	n/a	1
422.048	0.917	face	n/a	n/a	n/a	1
423.014	0.919	face	783	2	2	1
424.014	0.917	face	n/a	n/a	n/a	1
425.014	0.917	face	471	2	2	1
426.014	0.917	face	n/a	n/a	n/a	1
427.014	0.917	face	375	2	2	1
428.014	0.917	face	n/a	n/a	n/a	1
429.014	0.917	face	n/a	n/a	n/a	1
430.014	0.917	face	391	2	2	1
431.014	0.917	face	n/a	n/a	n/a	1
432.014	0.917	face	423	2	2	1
433.014	0.917	face	n/a	n/a	n/a	1
434.014	0.917	face	351	2	2	1
435.014	0.917	face	n/a	n/a	n/a	1
436.014	0.919	face	407	2	n/a	0
447.081	0.917	word	n/a	n/a	n/a	1
448.047	0.917	word	558	2	2	1
449.014	0.92	word	n/a	n/a	n/a	1
449.997	0.917	word	n/a	n/a	n/a	1
451.014	0.917	word	431	2	2	1
451.997	0.917	word	n/a	n/a	n/a	1
452.997	0.917	word	n/a	n/a	n/a	1
454.014	0.917	word	431	2	2	1
454.997	0.917	word	n/a	n/a	n/a	1
455.997	0.917	word	n/a	n/a	n/a	1
456.997	0.917	word	472	2	2	1
458.014	0.917	word	n/a	n/a	n/a	1
458.997	0.917	word	480	2	2	1
460.014	0.9	word	n/a	n/a	n/a	1
461.014	0.9	word	623	2	2	1
462.014	0.9	word	n/a	n/a	n/a	1
473.064	0.917	car	n/a	n/a	n/a	1
474.03	0.9	car	n/a	n/a	n/a	1
474.997	0.919	car	512	2	2	1
476.016	0.914	car	n/a	n/a	n/a	1
477.014	0.917	car	447	2	2	1
478.014	0.917	car	n/a	n/a	n/a	1
479.014	0.917	car	495	2	2	1
480.013	0.917	car	n/a	n/a	n/a	1
481.013	0.917	car	n/a	n/a	n/a	1
481.997	0.917	car	480	2	2	1
483.013	0.917	car	n/a	n/a	n/a	1
484.013	0.919	car	439	2	2	1
485.013	0.917	car	n/a	n/a	n/a	1
485.997	0.917	car	n/a	n/a	n/a	1
487.013	0.917	car	376	2	2	1
487.997	0.917	car	n/a	n/a	n/a	1
499.063	0.9	scene	n/a	n/a	n/a	1
500.013	0.917	scene	n/a	n/a	n/a	1
501.013	0.9	scene	n/a	n/a	n/a	1
502.013	0.917	scene	408	2	2	1
503.013	0.9	scene	n/a	n/a	n/a	1
504.013	0.917	scene	464	2	2	1
505.013	0.917	scene	n/a	n/a	n/a	1
506.013	0.917	scene	n/a	n/a	n/a	1
507.013	0.917	scene	424	2	2	1
508.013	0.917	scene	n/a	n/a	n/a	1
509.013	0.917	scene	440	2	2	1
510.013	0.917	scene	n/a	n/a	n/a	1
511.013	0.917	scene	528	2	2	1
512.013	0.917	scene	n/a	n/a	n/a	1
513.013	0.917	scene	n/a	n/a	n/a	1
514.013	0.917	scene	384	2	2	1
525.08	0.9	scene	n/a	n/a	n/a	1
526.03	0.917	scene	n/a	n/a	n/a	1
526.996	0.9	scene	n/a	n/a	n/a	1
527.996	0.917	scene	481	2	2	1
529.013	0.9	scene	n/a	n/a	n/a	1
530.013	0.917	scene	400	2	2	1
531.013	0.917	scene	n/a	n/a	n/a	1
532.013	0.917	scene	616	2	2	1
533.013	0.917	scene	n/a	n/a	n/a	1
534.013	0.917	scene	536	2	2	1
534.996	0.9	scene	n/a	n/a	n/a	1
536.013	0.917	scene	n/a	n/a	n/a	1
536.996	0.917	scene	361	2	2	1
538.013	0.917	scene	n/a	n/a	n/a	1
538.996	0.917	scene	529	2	2	1
540.013	0.9	scene	n/a	n/a	n/a	1
551.063	0.917	word	n/a	n/a	n/a	1
552.029	0.917	word	n/a	n/a	n/a	1
552.996	0.917	word	417	2	2	1
554.012	0.9	word	n/a	n/a	n/a	1
555.012	0.917	word	593	2	2	1
556.013	0.917	word	n/a	n/a	n/a	1
557.012	0.917	word	n/a	n/a	n/a	1
558.012	0.9	word	409	2	2	1
559.012	0.917	word	n/a	n/a	n/a	1
560.012	0.917	word	n/a	n/a	n/a	1
561.012	0.917	word	449	2	2	1
562.012	0.917	word	n/a	n/a	n/a	1
563.012	0.917	word	401	2	2	1
564.012	0.917	word	n/a	n/a	n/a	1
565.012	0.917	word	n/a	n/a	n/a	1
566.012	0.917	word	521	2	2	1
577.079	0.917	car	n/a	n/a	n/a	1
578.045	0.917	car	800	2	2	1
579.012	0.917	car	n/a	n/a	n/a	1
580.012	0.917	car	n/a	n/a	n/a	1
581.012	0.917	car	n/a	n/a	n/a	1
582.012	0.9	car	489	2	2	1
583.012	0.917	car	n/a	n/a	n/a	1
584.012	0.917	car	n/a	n/a	n/a	1
585.012	0.917	car	409	2	2	1
586.012	0.917	car	n/a	n/a	n/a	1
587.012	0.917	car	441	2	2	1
588.012	0.917	car	n/a	n/a	n/a	1
589.012	0.918	car	561	2	2	1
590.012	0.917	car	n/a	n/a	n/a	1
591.012	0.9	car	n/a	n/a	n/a	1
592.012	0.917	car	521	2	2	1
603.095	0.917	face	n/a	n/a	n/a	1
604.062	0.917	face	n/a	n/a	n/a	1
605.028	0.917	face	481	2	2	1
606.012	0.917	face	n/a	n/a	n/a	1
607.012	0.917	face	481	2	2	1
608.012	0.917	face	n/a	n/a	n/a	1
609.012	0.917	face	n/a	n/a	n/a	1
610.012	0.917	face	537	2	2	1
611.012	0.917	face	n/a	n/a	n/a	1
612.012	0.917	face	n/a	n/a	n/a	1
613.012	0.917	face	505	2	2	1
614.012	0.917	face	n/a	n/a	n/a	1
615.012	0.917	face	393	2	2	1
616.012	0.9	face	n/a	n/a	n/a	1
617.012	0.917	face	n/a	n/a	2	0
618.012	0.917	face	n/a	n/a	n/a	1