onset	duration	stim	cond	RT	resp	cresp	acc
4.046	0.647039447	TOUCHSTONE	lure	n/a	n/a	n/a	1
4.693	0.433327689	FRONTAGE	lure	n/a	n/a	n/a	1
5.126	0.416662557	EXTRUSION	lure	n/a	n/a	n/a	1
5.543	0.500039585	BANDIT	lure	n/a	n/a	n/a	1
6.043	0.483281899	BANKER	lure	n/a	n/a	n/a	1
6.526	0.451132013	AIRCREW	lure	n/a	n/a	n/a	1
6.977	0.398855507	BIRDSEED	lure	n/a	n/a	n/a	1
7.376	0.583322412	TURTLE	lure	n/a	n/a	n/a	1
7.959	2.016639657	LABEL	long	n/a	n/a	n/a	1
9.976	0.499987442	SHAW	lure	n/a	n/a	n/a	1
10.476	0.633329978	CLOVER	lure	n/a	n/a	n/a	1
11.109	0.316657236	BRA	lure	n/a	n/a	n/a	1
11.426	0.583325603	ENSIGN	lure	n/a	n/a	n/a	1
12.009	0.383331563	MEANIE	lure	n/a	n/a	n/a	1
12.393	0.383330144	INKWELL	lure	n/a	n/a	n/a	1
12.776	0.383329721	GRENADINE	lure	n/a	n/a	n/a	1
13.159	0.433324143	SPATULA	lure	263	2	n/a	0
13.593	0.316663777	OPENER	lure	n/a	n/a	n/a	1
13.909	0.333324465	TICKER	lure	n/a	n/a	n/a	1
14.243	0.449992783	BLOOMER	lure	n/a	n/a	n/a	1
14.693	0.583328118	ADMIRALTY	lure	n/a	n/a	n/a	1
15.276	0.487876155	SIERRA	lure	n/a	n/a	n/a	1
15.764	0.432564473	ANKLET	lure	n/a	n/a	n/a	1
16.196	0.614562565	MATTER	short	n/a	n/a	n/a	1
16.811	0.481635703	BONDSMAN	lure	n/a	n/a	n/a	1
17.292	0.683324288	YOUNGSTER	lure	n/a	n/a	n/a	1
17.976	0.533327519	CREAMERY	lure	n/a	n/a	n/a	1
18.509	0.483327776	GAINER	lure	233	2	n/a	0
18.992	0.333321265	BROWNING	lure	n/a	n/a	n/a	1
19.326	0.533330395	MEADOW	lure	n/a	n/a	n/a	1
19.859	0.384635994	CRANIUM	lure	n/a	n/a	n/a	1
20.244	0.452563509	MILLENNIUM	lure	n/a	n/a	n/a	1
20.696	0.629444709	PASSENGER	lure	n/a	n/a	n/a	1
21.326	0.400685543	SESSION	lure	n/a	n/a	n/a	1
21.726	0.599303274	MERGER	lure	n/a	n/a	n/a	1
22.326	0.483325924	VEGETABLE	lure	n/a	n/a	n/a	1
22.809	0.733323869	HEADLINE	lure	n/a	n/a	n/a	1
23.542	0.399994254	MOCHA	lure	n/a	n/a	n/a	1
23.942	0.733322918	WRAPPER	lure	n/a	n/a	n/a	1
24.676	0.649991334	ROCK	short	n/a	n/a	n/a	1
25.326	0.43332595	CEREBELLUM	lure	n/a	n/a	n/a	1
25.759	0.566659476	PRIVILEGE	lure	n/a	n/a	n/a	1
26.326	0.616659983	INFLICTION	lure	n/a	n/a	n/a	1
26.942	0.583324596	CHEESE	lure	n/a	n/a	n/a	1
27.526	0.333328007	BRINK	lure	n/a	n/a	n/a	1
27.859	0.766660615	CORKSCREW	lure	n/a	n/a	n/a	1
28.626	0.466726979	BYLAW	lure	n/a	n/a	n/a	1
29.092	0.683300539	ELOQUENCE	lure	n/a	n/a	n/a	1
29.776	0.500006189	POLICEMAN	lure	n/a	n/a	n/a	1
30.276	0.784760834	DOORKEEPER	lure	n/a	n/a	n/a	1
31.06	0.415161246	JUBILEE	lure	n/a	n/a	n/a	1
31.476	0.499992626	UNICORN	lure	n/a	n/a	n/a	1
31.976	0.466661937	HOTPLATE	lure	n/a	n/a	n/a	1
32.442	0.466658242	COOKBOOK	lure	n/a	n/a	n/a	1
32.909	1.016653955	BERRY	fruit	610	2	2	1
33.926	0.437988708	LIQUIDITY	lure	n/a	n/a	n/a	1
34.364	0.362000479	EYELID	lure	n/a	n/a	n/a	1
34.726	0.44998908	ARCHDUKE	lure	n/a	n/a	n/a	1
35.176	0.533330126	VENTURER	lure	n/a	n/a	n/a	1
35.709	0.34999629	HEXAGRAM	lure	n/a	n/a	n/a	1
36.059	0.383326736	ROPEWALK	lure	n/a	n/a	n/a	1
36.442	0.366662448	DEERSKIN	lure	n/a	n/a	n/a	1
36.809	0.616658216	REMISSION	lure	n/a	n/a	n/a	1
37.426	0.399994515	IMMUNOLOGY	lure	n/a	n/a	n/a	1
37.826	0.383326783	COLONEL	lure	n/a	n/a	n/a	1
38.209	0.499995861	DIAPER	lure	n/a	n/a	n/a	1
38.709	0.599989686	PUBLICITY	lure	n/a	n/a	n/a	1
39.309	0.31665768	VECTOR	lure	n/a	n/a	n/a	1
39.625	0.666662137	CONVEYANCE	lure	n/a	n/a	n/a	1
40.292	0.68332223	GENERATION	lure	n/a	n/a	n/a	1
40.975	0.449994449	EQUITY	lure	n/a	n/a	n/a	1
41.425	2.016642208	CHISEL	long	n/a	n/a	n/a	1
43.442	0.587026825	NAVIGATOR	lure	n/a	n/a	n/a	1
44.029	0.396290458	SPEEDBOAT	lure	n/a	n/a	n/a	1
44.425	0.36665667	DISQUIET	lure	n/a	n/a	n/a	1
44.792	0.599997581	BLIMP	lure	n/a	n/a	n/a	1
45.392	0.566657935	TOWNSMEN	lure	n/a	n/a	n/a	1
45.959	0.549992363	BUCKLER	lure	n/a	n/a	n/a	1
46.509	0.349993509	CUPCAKE	lure	n/a	n/a	n/a	1
46.859	0.516659231	LANTERN	lure	n/a	n/a	n/a	1
47.375	0.433327702	BOWLER	lure	n/a	n/a	n/a	1
47.809	0.666657371	SERVITUDE	lure	n/a	n/a	n/a	1
48.475	0.649992868	BOXWOOD	lure	n/a	n/a	n/a	1
49.125	0.583319879	WISDOM	lure	n/a	n/a	n/a	1
49.709	2.016644378	LIGHT	long	n/a	n/a	n/a	1
51.725	0.683317671	EQUALITY	lure	n/a	n/a	n/a	1
52.409	0.649996085	DISPARITY	lure	n/a	n/a	n/a	1
53.059	0.599990847	CABOODLE	lure	n/a	n/a	n/a	1
53.659	0.516659053	SENTIMENT	lure	n/a	n/a	n/a	1
54.175	0.73332251	EPIGRAM	lure	n/a	n/a	n/a	1
54.909	0.383328816	SQUADRON	lure	n/a	n/a	n/a	1
55.292	0.699992736	PANE	lure	n/a	n/a	n/a	1
55.992	0.466657741	PENDANT	lure	n/a	n/a	n/a	1
56.459	0.683325245	MENU	lure	n/a	n/a	n/a	1
57.142	0.733323673	WINDSCREEN	lure	n/a	n/a	n/a	1
57.875	0.566653263	COMPLEXION	lure	n/a	n/a	n/a	1
58.442	2.016643425	WAGON	long	n/a	n/a	n/a	1
60.459	0.437874433	UNDERLAY	lure	n/a	n/a	n/a	1
60.896	0.495445702	GYMNAST	lure	n/a	n/a	n/a	1
61.392	0.366663392	ISOTOPE	lure	n/a	n/a	n/a	1
61.759	0.383326799	ARMLOAD	lure	n/a	n/a	n/a	1
62.142	0.616657562	INFANTRY	lure	n/a	n/a	n/a	1
62.759	0.566666333	SYMBOL	lure	n/a	n/a	n/a	1
63.325	0.449987118	TRADITION	lure	n/a	n/a	n/a	1
63.775	0.31666079	CONTEXT	lure	n/a	n/a	n/a	1
64.092	0.319497168	DEVELOPER	lure	n/a	n/a	n/a	1
64.411	0.713824352	BEAKER	lure	n/a	n/a	n/a	1
65.125	0.39999137	DISSOn/aCE	lure	n/a	n/a	n/a	1
65.525	0.51666287	HEADLAMP	lure	n/a	n/a	n/a	1
66.042	0.499991736	GESTATION	lure	n/a	n/a	n/a	1
66.542	0.616659545	RIDGE	short	n/a	n/a	n/a	1
67.158	0.733320236	HUMANKIND	lure	n/a	n/a	n/a	1
67.892	0.616660385	LOBE	lure	n/a	n/a	n/a	1
68.508	0.466654573	BEDTIME	lure	n/a	n/a	n/a	1
68.975	0.716661819	UNDERBRUSH	lure	n/a	n/a	n/a	1
69.692	0.699990237	PRAYER	lure	n/a	n/a	n/a	1
70.392	0.499990232	DOVE	lure	n/a	n/a	n/a	1
70.892	0.416658697	COMMUNION	lure	n/a	n/a	n/a	1
71.308	0.45000018	TRANSIENCE	lure	n/a	n/a	n/a	1
71.758	0.633324292	NAVIGATION	lure	n/a	n/a	n/a	1
72.392	0.566657734	INVALID	lure	n/a	n/a	n/a	1
72.958	0.633323123	TREATISE	lure	n/a	n/a	n/a	1
73.592	0.74998548	SELF	lure	n/a	n/a	n/a	1
74.342	0.499998675	ANIMATION	lure	n/a	n/a	n/a	1
74.842	0.616657938	PLANK	short	n/a	n/a	n/a	1
75.458	0.483325032	RAT	lure	n/a	n/a	n/a	1
75.942	0.533325986	SOLEMNITY	lure	n/a	n/a	n/a	1
76.475	0.616658753	CONCERTO	lure	n/a	n/a	n/a	1
77.092	0.71665758	REGIMENT	lure	n/a	n/a	n/a	1
77.808	0.449990732	CALAMITY	lure	n/a	n/a	n/a	1
78.258	0.499995893	PUDDING	lure	n/a	n/a	n/a	1
78.758	0.56665407	BREWERY	lure	n/a	n/a	n/a	1
79.325	0.433331727	SAPPHIRE	lure	n/a	n/a	n/a	1
79.758	0.333324165	SUPEREGO	lure	n/a	n/a	n/a	1
80.092	0.549997544	MADWOMAN	lure	n/a	n/a	n/a	1
80.642	0.670775606	FLEA	lure	n/a	n/a	n/a	1
81.312	0.683569799	MALT	lure	n/a	n/a	n/a	1
81.996	0.428964901	SWATTER	lure	n/a	n/a	n/a	1
82.425	0.699985831	VALVE	lure	n/a	n/a	n/a	1
83.125	0.649998361	STICK	short	n/a	n/a	n/a	1
83.775	0.366656832	CAMPFIRE	lure	n/a	n/a	n/a	1
84.142	0.349996591	DEBASEMENT	lure	n/a	n/a	n/a	1
84.492	0.333326734	DEFECT	lure	n/a	n/a	n/a	1
84.825	0.616662197	PINHEAD	lure	n/a	n/a	n/a	1
85.442	0.566652192	LANDMARK	lure	n/a	n/a	n/a	1
86.008	0.316665359	CRITERIA	lure	n/a	n/a	n/a	1
86.325	0.733325198	REGION	lure	n/a	n/a	n/a	1
87.058	0.716655481	IMMENSITY	lure	n/a	n/a	n/a	1
87.775	0.633324417	PATRONAGE	lure	n/a	n/a	n/a	1
88.408	0.533323356	UTOPIA	lure	n/a	n/a	n/a	1
88.941	0.666659637	CHARACTER	lure	n/a	n/a	n/a	1
89.608	0.699987711	FAIRWAY	lure	n/a	n/a	n/a	1
90.308	0.683328403	RHINESTONE	lure	n/a	n/a	n/a	1
90.991	0.751064637	DOORNAIL	lure	n/a	n/a	n/a	1
91.743	2.01556007	CENT	long	n/a	n/a	n/a	1
93.758	0.349996689	AUNT	lure	n/a	n/a	n/a	1
94.108	0.616656986	DISSENT	lure	n/a	n/a	n/a	1
94.725	0.466661192	LUCK	lure	n/a	n/a	n/a	1
95.191	0.633323725	SERMON	lure	n/a	n/a	n/a	1
95.825	0.61665771	RESTAURANT	lure	n/a	n/a	n/a	1
96.441	0.321081152	AVALANCHE	lure	n/a	n/a	n/a	1
96.762	0.433560218	MOVER	lure	n/a	n/a	n/a	1
97.196	0.578674665	RINGMASTER	lure	n/a	n/a	n/a	1
97.775	0.483328614	PATROLMEN	lure	n/a	n/a	n/a	1
98.258	0.733321662	PARTRIDGE	lure	n/a	n/a	n/a	1
98.991	0.749989216	HORSEPOWER	lure	n/a	n/a	n/a	1
99.741	0.599992082	SCHEMA	lure	n/a	n/a	n/a	1
100.341	1.01665609	STRAWBERRY	fruit	n/a	n/a	2	0
101.358	0.583319824	WINDOWSILL	lure	417	2	n/a	0
101.941	0.666659907	ANNOUNCER	lure	n/a	n/a	n/a	1
102.608	0.416658517	PAGEANT	lure	n/a	n/a	n/a	1
103.025	0.44999701	CAMOMILE	lure	n/a	n/a	n/a	1
103.475	0.66665524	BRUSHFIRE	lure	n/a	n/a	n/a	1
104.141	0.351556966	ZOO	lure	n/a	n/a	n/a	1
104.493	0.598565161	PLIGHT	lure	n/a	n/a	n/a	1
105.091	0.71652161	TURNPIKE	lure	n/a	n/a	n/a	1
105.808	0.349994475	ICEPICK	lure	n/a	n/a	n/a	1
106.158	0.583323642	SUPPRESSOR	lure	n/a	n/a	n/a	1
106.741	0.666659415	HISTAMINE	lure	n/a	n/a	n/a	1
107.408	0.499991528	MISHAP	lure	n/a	n/a	n/a	1
107.908	0.366852015	TAPESTRY	lure	n/a	n/a	n/a	1
108.275	1.016464531	CRANBERRY	fruit	564	2	2	1
109.291	0.349994891	DISPERSION	lure	n/a	n/a	n/a	1
109.641	0.616656213	PATHWAY	lure	n/a	n/a	n/a	1
110.258	0.649992528	DOT	lure	n/a	n/a	n/a	1
110.908	0.61666039	PLAYROOM	lure	n/a	n/a	n/a	1
111.524	0.583318626	SLEIGH	lure	n/a	n/a	n/a	1
112.108	0.699997357	BADGE	lure	n/a	n/a	n/a	1
112.808	0.716654383	DUSTPAN	lure	n/a	n/a	n/a	1
113.524	0.449991894	MUTT	lure	n/a	n/a	n/a	1
113.974	0.549991567	SNOWSTORM	lure	n/a	n/a	n/a	1
114.524	0.449993573	DECENCY	lure	n/a	n/a	n/a	1
114.974	0.383331576	LAXATIVE	lure	n/a	n/a	n/a	1
115.358	0.333329406	MOPED	lure	n/a	n/a	n/a	1
115.691	0.633322369	REDUCTION	lure	n/a	n/a	n/a	1
116.324	0.616659778	CROQUET	lure	n/a	n/a	n/a	1
116.941	0.616658851	CYCLONE	short	n/a	n/a	n/a	1
117.558	0.666657335	PRODUCER	lure	n/a	n/a	n/a	1
118.224	0.399993515	ASSUMPTION	lure	n/a	n/a	n/a	1
118.624	0.516659703	ALE	lure	n/a	n/a	n/a	1
119.141	0.666656491	HARDWARE	lure	n/a	n/a	n/a	1
119.808	0.583328095	PEPPERCORN	lure	n/a	n/a	n/a	1
120.391	0.349992571	CASTLE	lure	n/a	n/a	n/a	1
120.741	0.716659149	CLOCKWORK	lure	170	2	n/a	0
121.458	0.566655786	DECATHLON	lure	n/a	n/a	n/a	1
122.024	0.633324593	HEEL	lure	n/a	n/a	n/a	1
122.658	0.499995051	FONDUE	lure	n/a	n/a	n/a	1
123.158	0.683323333	ATTITUDE	lure	n/a	n/a	n/a	1
123.841	0.366656632	DYSLEXIA	lure	n/a	n/a	n/a	1
124.208	0.766658197	REFINERY	lure	n/a	n/a	n/a	1
124.974	0.466663085	DOLLHOUSE	lure	n/a	n/a	n/a	1
125.441	2.016640754	PHOTO	long	n/a	n/a	n/a	1
127.458	0.516655429	CENTURION	lure	n/a	n/a	n/a	1
127.974	0.649992111	PRECEDENCE	lure	n/a	n/a	n/a	1
128.624	0.583326122	SHUTTLE	lure	n/a	n/a	n/a	1
129.208	0.46665735	LADY	lure	n/a	n/a	n/a	1
129.674	0.433329193	TURMOIL	lure	n/a	n/a	n/a	1
130.108	0.633327966	BALLAD	lure	n/a	n/a	n/a	1
130.741	0.716653941	CABDRIVER	lure	n/a	n/a	n/a	1
131.458	0.649989219	SALE	lure	n/a	n/a	n/a	1
132.108	0.483327588	SENTRY	lure	n/a	n/a	n/a	1
132.591	0.749989622	APPROVAL	lure	n/a	n/a	n/a	1
133.341	0.416660944	ILLUSION	lure	n/a	n/a	n/a	1
133.758	2.016641625	BELL	long	n/a	n/a	n/a	1
135.774	0.51665791	LIBRARY	lure	n/a	n/a	n/a	1
136.291	0.586194041	COLE	lure	n/a	n/a	n/a	1
136.877	0.330463109	ETHER	lure	n/a	n/a	n/a	1
137.207	0.483323952	EGO	lure	n/a	n/a	n/a	1
137.691	0.749989431	AGGRESSION	lure	n/a	n/a	n/a	1
138.441	0.483324247	PROPELLER	lure	n/a	n/a	n/a	1
138.924	0.400056731	MONSOON	lure	n/a	n/a	n/a	1
139.324	0.683258276	SUFFIX	lure	n/a	n/a	n/a	1
140.007	0.43333236	GUNMAN	lure	n/a	n/a	n/a	1
140.441	0.566659	CLOTHESPIN	lure	n/a	n/a	n/a	1
141.007	0.516661144	FEEDBAG	lure	n/a	n/a	n/a	1
141.524	0.550051288	TONER	lure	n/a	n/a	n/a	1
142.074	0.616600224	PANEL	short	n/a	n/a	n/a	1
142.691	0.402733104	BEESWAX	lure	n/a	n/a	n/a	1
143.093	0.713975908	CORRECTION	lure	n/a	n/a	n/a	1
143.807	0.799929148	ORGAN	lure	n/a	n/a	n/a	1
144.607	0.399992394	SANATORIUM	lure	n/a	n/a	n/a	1
145.007	0.366724989	SNIFFER	lure	n/a	n/a	n/a	1
145.374	0.533328775	DEVOTEE	lure	n/a	n/a	n/a	1
145.907	0.733259986	LUNCHTIME	lure	n/a	n/a	n/a	1
146.641	0.551477019	NIGHTHAWK	lure	n/a	n/a	n/a	1
147.192	0.381842684	FIN	lure	n/a	n/a	n/a	1
147.574	0.449989273	TIRADE	lure	n/a	n/a	n/a	1
148.024	0.399998835	ENGRAVER	lure	n/a	n/a	n/a	1
148.424	0.31665758	GIVER	lure	n/a	n/a	n/a	1
148.741	0.533385221	JELLY	lure	n/a	n/a	n/a	1
149.274	0.749934668	LEAFLET	lure	n/a	n/a	n/a	1
150.024	0.433387261	HYPOCRITE	lure	n/a	n/a	n/a	1
150.457	2.016580332	GIFT	long	n/a	n/a	n/a	1
152.474	0.666656549	TURNOVER	lure	n/a	n/a	n/a	1
153.141	0.766656025	FLUIDITY	lure	n/a	n/a	n/a	1
153.907	0.583326646	WATCHBAND	lure	n/a	n/a	n/a	1
154.491	0.516657951	WASHBASIN	lure	n/a	n/a	n/a	1
155.007	0.454758627	CAVALRYMEN	lure	n/a	n/a	n/a	1
155.462	0.628556589	EXCLUSION	lure	n/a	n/a	n/a	1
156.091	0.583327792	FEEDBACK	lure	n/a	n/a	n/a	1
156.674	0.649990401	VISITOR	lure	n/a	n/a	n/a	1
157.324	0.683324075	EPIGRAPH	lure	n/a	n/a	n/a	1
158.007	0.599992662	SUNBURST	lure	n/a	n/a	n/a	1
158.607	0.616662165	ORNAMENT	short	n/a	n/a	n/a	1
159.224	0.533321502	SCRAPER	lure	n/a	n/a	n/a	1
159.757	0.683323242	LACKEY	lure	n/a	n/a	n/a	1
160.44	0.49999446	VULGARITY	lure	n/a	n/a	n/a	1
160.94	0.483326004	HANDIWORK	lure	n/a	n/a	n/a	1
161.424	0.599989104	REIN	lure	n/a	n/a	n/a	1
162.024	0.71665921	COMPASSION	lure	n/a	n/a	n/a	1
162.74	0.666659055	IRRITANT	lure	n/a	n/a	n/a	1
163.407	0.633320801	WRINGER	lure	n/a	n/a	n/a	1
164.04	0.666661445	DEFENDANT	lure	n/a	n/a	n/a	1
164.707	0.33332783	ANONYMITY	lure	n/a	n/a	n/a	1
165.04	0.433325194	OBSTACLE	lure	n/a	n/a	n/a	1
165.474	0.649987838	RECLUSE	lure	n/a	n/a	n/a	1
166.124	0.549996227	VASELINE	lure	n/a	n/a	n/a	1
166.674	0.699992786	PAWNBROKER	lure	n/a	n/a	n/a	1
167.374	0.616658419	BROOM	short	n/a	n/a	n/a	1
167.99	0.799985657	VIEWER	lure	n/a	n/a	n/a	1
168.79	0.633328647	ASCENSION	lure	n/a	n/a	n/a	1
169.424	0.333328175	GULLET	lure	n/a	n/a	n/a	1
169.757	0.633322121	MINORITY	lure	n/a	n/a	n/a	1
170.39	0.654109754	GETAWAY	lure	n/a	n/a	n/a	1
171.044	0.395876223	SURVIVOR	lure	n/a	n/a	n/a	1
171.44	0.599992956	IGNORANCE	lure	n/a	n/a	n/a	1
172.04	0.433324953	NIGHTGOWN	lure	n/a	n/a	n/a	1
172.474	0.599993978	CODFISH	lure	n/a	n/a	n/a	1
173.074	0.349992927	MOLAR	lure	n/a	n/a	n/a	1
173.424	0.499992515	DUEL	lure	n/a	n/a	n/a	1
173.924	0.599996132	DIVIDEND	lure	n/a	n/a	n/a	1
174.524	0.700044225	WHISKEY	lure	n/a	n/a	n/a	1
175.224	0.349993686	SLATE	lure	n/a	n/a	n/a	1
175.574	2.016585809	SPEAR	long	n/a	n/a	n/a	1
177.59	0.350049025	FORTE	lure	n/a	n/a	n/a	1
177.94	0.749933176	ANIMALISM	lure	n/a	n/a	n/a	1
178.69	0.699992869	FRAMER	lure	n/a	n/a	n/a	1
179.39	0.716653575	STRINGENCY	lure	n/a	n/a	n/a	1
180.107	0.649989211	EXPERIMENT	lure	n/a	n/a	n/a	1
180.757	0.666711604	SPLASHDOWN	lure	n/a	n/a	n/a	1
181.424	0.666607546	COUNTRYMAN	lure	n/a	n/a	n/a	1
182.09	0.749985307	SMUDGE	lure	n/a	n/a	n/a	1
182.84	0.316663538	KNUCKLE	lure	n/a	n/a	n/a	1
183.157	0.633326561	MAGISTRATE	lure	n/a	n/a	n/a	1
183.79	2.01663539	RAVINE	long	n/a	n/a	n/a	1
185.807	0.483327497	NARCISSISM	lure	n/a	n/a	n/a	1
186.29	0.71665905	SKEPTICISM	lure	n/a	n/a	n/a	1
187.007	0.566705988	MAGMA	lure	n/a	n/a	n/a	1
187.573	0.549944543	NONPAYMENT	lure	n/a	n/a	n/a	1
188.123	0.783322654	MOUNTAIN	lure	n/a	n/a	n/a	1
188.907	0.550050627	ROADSTER	lure	n/a	n/a	n/a	1
189.457	0.59993251	AIRLOCK	lure	n/a	n/a	n/a	1
190.057	0.733325006	SOLIDARITY	lure	n/a	n/a	n/a	1
190.79	0.366660979	SULTAN	lure	n/a	n/a	n/a	1
191.157	0.516719427	BOSOM	lure	n/a	n/a	n/a	1
191.673	1.016646328	BLACKBERRY	fruit	677	2	2	1
192.69	0.583328094	ADVERB	lure	n/a	n/a	n/a	1
193.273	0.633269051	BACKSIDE	lure	n/a	n/a	n/a	1
193.907	0.699989573	COROLLARY	lure	n/a	n/a	n/a	1
194.607	0.48332817	HEADHUNTER	lure	n/a	n/a	n/a	1
195.09	0.737876919	OVERTIME	lure	n/a	n/a	n/a	1
195.828	0.428771952	IDEALISM	lure	n/a	n/a	n/a	1
196.257	0.449989131	WIG	lure	n/a	n/a	n/a	1
196.707	0.449999187	LIBERATOR	lure	n/a	n/a	n/a	1
197.157	0.583324079	REPOSITORY	lure	n/a	n/a	n/a	1
197.74	0.750046199	FILMSTRIP	lure	n/a	n/a	n/a	1
198.49	0.533271707	FOWLER	lure	n/a	n/a	n/a	1
199.023	0.633324201	TRAUMA	lure	n/a	n/a	n/a	1
199.657	0.616655934	ISLAND	short	n/a	n/a	n/a	1
200.273	0.666658483	BIRTHRATE	lure	n/a	n/a	n/a	1
200.94	0.333323267	JIFFY	lure	n/a	n/a	n/a	1
201.273	0.60005462	PROPRIETOR	lure	n/a	n/a	n/a	1
201.873	0.383270106	GENEROSITY	lure	n/a	n/a	n/a	1
202.257	0.549994547	RENDITION	lure	n/a	n/a	n/a	1
202.807	0.500043389	CALYPSO	lure	n/a	n/a	n/a	1
203.307	0.599998568	INDOLENCE	lure	n/a	n/a	n/a	1
203.907	0.433323707	EYEBROW	lure	n/a	n/a	n/a	1
204.34	0.516604705	LOGIC	lure	n/a	n/a	n/a	1
204.857	0.349994603	SEPARATION	lure	n/a	n/a	n/a	1
205.207	0.583389013	PENTAGRAM	lure	n/a	n/a	n/a	1
205.79	0.633255532	BUREAUCRAT	lure	n/a	n/a	n/a	1
206.423	0.68332905	MADHOUSE	lure	n/a	n/a	n/a	1
207.107	0.700049325	VIOLATION	lure	n/a	n/a	n/a	1
207.807	1.016595932	WATERMELON	fruit	n/a	n/a	2	0
208.823	0.383329577	DISTASTE	lure	n/a	n/a	n/a	1
209.206	0.584900462	KILOGRAM	lure	n/a	n/a	n/a	1
209.791	0.384562722	QUART	lure	n/a	n/a	n/a	1
210.176	0.713843366	MURAL	lure	n/a	n/a	n/a	1
210.89	0.733379877	FERRYBOAT	lure	n/a	n/a	n/a	1
211.623	0.599994307	FEAT	lure	n/a	n/a	n/a	1
212.223	0.333338173	WEEKNIGHT	lure	n/a	n/a	n/a	1
212.557	0.583257303	HUBCAP	lure	n/a	n/a	n/a	1
213.14	0.366659202	CONCLAVE	lure	n/a	n/a	n/a	1
213.506	0.486431977	WORKBASKET	lure	n/a	n/a	n/a	1
213.993	0.430222437	PLATFORM	lure	n/a	n/a	n/a	1
214.423	0.666654535	DADDY	lure	n/a	n/a	n/a	1
215.09	0.433333847	STRAIT	lure	n/a	n/a	n/a	1
215.523	0.366659729	STARLING	lure	n/a	n/a	n/a	1
215.89	1.016710977	MANGO	fruit	605	2	2	1
216.906	0.583265954	SCAPULA	lure	n/a	n/a	n/a	1
217.49	0.399994868	COHERENCE	lure	n/a	n/a	n/a	1
217.89	0.633325908	SNOWFLAKE	lure	n/a	n/a	n/a	1
218.523	0.56665986	BACKGAMMON	lure	n/a	n/a	n/a	1
219.09	0.583324072	JAWBONE	lure	n/a	n/a	n/a	1
219.673	0.566652927	PEEPER	lure	n/a	n/a	n/a	1
220.24	0.633331306	CHAMPAGNE	lure	n/a	n/a	n/a	1
220.873	0.583324481	HEADLIGHT	lure	n/a	n/a	n/a	1
221.456	0.450048937	ROSETTE	lure	n/a	n/a	n/a	1
221.906	0.433271146	STEWARD	lure	n/a	n/a	n/a	1
222.34	0.650049248	REDNECK	lure	n/a	n/a	n/a	1
222.99	0.516600455	AMBITION	lure	n/a	n/a	n/a	1
223.506	0.44999272	EXPLOSION	lure	n/a	n/a	n/a	1
223.956	0.549995152	COUNTRY	lure	n/a	n/a	n/a	1
224.506	0.449993756	BIOLOGY	lure	n/a	n/a	n/a	1
224.956	0.383329811	FOOTPRINT	lure	n/a	n/a	n/a	1
225.34	0.749987174	PLAYWRIGHT	lure	n/a	n/a	n/a	1
226.09	0.516661602	TRIPOD	lure	n/a	n/a	n/a	1
226.606	n/a	DOORBELL	lure	n/a	n/a	n/a	1
238.025	0.748056642	CONFUSION	lure	n/a	n/a	n/a	1
238.773	0.416663509	ZONE	lure	n/a	n/a	n/a	1
239.189	0.749989843	FABLE	lure	n/a	n/a	n/a	1
239.939	0.59998866	HERRING	lure	n/a	n/a	n/a	1
240.539	0.699993438	AMAZEMENT	lure	n/a	n/a	n/a	1
241.239	0.666656943	BASEBOARD	lure	n/a	n/a	n/a	1
241.906	2.016638839	RAVINE	long	n/a	n/a	n/a	1
243.923	0.467844626	STALEMATE	lure	n/a	n/a	n/a	1
244.391	0.482142823	INVALIDITY	lure	n/a	n/a	n/a	1
244.873	0.7333213	FOOTBOARD	lure	n/a	n/a	n/a	1
245.606	0.499994835	MAYOR	lure	n/a	n/a	n/a	1
246.106	0.499992756	BACKPACK	lure	n/a	n/a	n/a	1
246.606	0.416662474	COMPLIMENT	lure	n/a	n/a	n/a	1
247.023	0.483320489	FALCON	lure	n/a	n/a	n/a	1
247.506	0.616665316	TODDLER	lure	n/a	n/a	n/a	1
248.123	0.399993159	CALIBER	lure	n/a	n/a	n/a	1
248.523	0.58332341	OPTIMISM	lure	n/a	n/a	n/a	1
249.106	0.71665826	TABOO	lure	n/a	n/a	n/a	1
249.823	0.749990579	LISTENER	lure	n/a	n/a	n/a	1
250.573	2.049968901	LIGHT	long	n/a	n/a	n/a	1
252.623	0.533382417	COERCION	lure	n/a	n/a	n/a	1
253.156	0.649935712	INVOCATION	lure	n/a	n/a	n/a	1
253.806	0.366662355	WORKMAN	lure	n/a	n/a	n/a	1
254.173	0.399993898	RETAILER	lure	n/a	n/a	n/a	1
254.573	0.316661459	DENIM	lure	n/a	n/a	n/a	1
254.889	0.41665629	HORSEBACK	lure	n/a	n/a	n/a	1
255.306	0.650053045	TRIBE	lure	n/a	n/a	n/a	1
255.956	0.566603197	FOLK	lure	n/a	n/a	n/a	1
256.522	0.583323975	PARISH	lure	n/a	n/a	n/a	1
257.106	0.466717708	CHOPSTICK	lure	n/a	n/a	n/a	1
257.573	0.633267625	ANNEX	lure	n/a	n/a	n/a	1
258.206	0.399995124	ARROGANCE	lure	n/a	n/a	n/a	1
258.606	0.616658683	STICK	short	n/a	n/a	n/a	1
259.222	0.566658303	DEW	lure	n/a	n/a	n/a	1
259.789	0.583380272	COLESLAW	lure	n/a	n/a	n/a	1
260.372	0.649993274	ESCAPEE	lure	n/a	n/a	n/a	1
261.022	0.766597591	SHOWCASE	lure	n/a	n/a	n/a	1
261.789	0.666657782	TIARA	lure	n/a	n/a	n/a	1
262.456	0.633325051	CRYBABY	lure	n/a	n/a	n/a	1
263.089	0.566659669	CHICKPEA	lure	n/a	n/a	n/a	1
263.656	0.699989907	FLUTIST	lure	n/a	n/a	n/a	1
264.356	0.499991635	GLYCERINE	lure	n/a	n/a	n/a	1
264.856	0.549994449	GERM	lure	n/a	n/a	n/a	1
265.406	0.699988919	PINTO	lure	n/a	n/a	n/a	1
266.106	0.416661083	ENDEARMENT	lure	n/a	n/a	n/a	1
266.522	0.583382999	BALLOONIST	lure	n/a	n/a	n/a	1
267.106	0.616601387	BROOM	short	n/a	n/a	n/a	1
267.722	0.433327101	RIGIDITY	lure	n/a	n/a	n/a	1
268.156	0.716825061	SETBACK	lure	n/a	n/a	n/a	1
268.872	0.383158395	NATURALIST	lure	n/a	n/a	n/a	1
269.256	0.466660458	DENTURE	lure	n/a	n/a	n/a	1
269.722	0.333328958	NOTEPAPER	lure	n/a	n/a	n/a	1
270.056	0.549990062	COMEDY	lure	n/a	n/a	n/a	1
270.606	0.583377842	LEFTHANDER	lure	n/a	n/a	n/a	1
271.189	0.566609872	SARCASM	lure	n/a	n/a	n/a	1
271.756	0.749989747	BEDPOST	lure	n/a	n/a	n/a	1
272.506	0.516714933	PRESERVER	lure	n/a	n/a	n/a	1
273.022	0.433319334	GASTRONOMY	lure	n/a	n/a	n/a	1
273.456	0.366613809	FIGMENT	lure	n/a	n/a	n/a	1
273.822	0.366661229	ESPIONAGE	lure	n/a	n/a	n/a	1
274.189	0.316718738	ROADBLOCK	lure	n/a	n/a	n/a	1
274.506	0.616599666	FRESHMAN	lure	n/a	n/a	n/a	1
275.122	0.533327771	MEDICINE	lure	n/a	n/a	n/a	1
275.656	2.016634844	BELL	long	n/a	n/a	n/a	1
277.672	0.486312127	CHEF	lure	n/a	n/a	n/a	1
278.159	0.447070263	ANTECEDENT	lure	n/a	n/a	n/a	1
278.606	0.333271158	REDWOOD	lure	n/a	n/a	n/a	1
278.939	0.599992979	REVEREND	lure	n/a	n/a	n/a	1
279.539	0.766649215	PROSPECT	lure	n/a	n/a	n/a	1
280.305	0.59999416	PASSION	lure	n/a	n/a	n/a	1
280.905	0.349995378	DIME	lure	n/a	n/a	n/a	1
281.255	0.350054895	PINUP	lure	n/a	n/a	n/a	1
281.606	0.583263019	CORNSTARCH	lure	n/a	n/a	n/a	1
282.189	0.483332415	EXCUSE	lure	n/a	n/a	n/a	1
282.672	0.549994276	MYSTIQUE	lure	n/a	n/a	n/a	1
283.222	0.766651578	RAPIDITY	lure	n/a	n/a	n/a	1
283.989	2.016642818	CENT	long	n/a	n/a	n/a	1
286.005	0.483325598	DESPERADO	lure	n/a	n/a	n/a	1
286.489	0.349993285	CONJUNCT	lure	n/a	n/a	n/a	1
286.839	0.616657936	DETONATOR	lure	n/a	n/a	n/a	1
287.455	0.333388261	FLIGHT	lure	n/a	n/a	n/a	1
287.789	0.666599787	ROADSIDE	lure	n/a	n/a	n/a	1
288.455	0.550051007	VOTER	lure	n/a	n/a	n/a	1
289.005	0.733321232	SWEATSHIRT	lure	n/a	n/a	n/a	1
289.739	0.449936744	REGIME	lure	n/a	n/a	n/a	1
290.189	0.449994346	CALORIE	lure	n/a	n/a	n/a	1
290.639	0.416716627	WEAPOn/aY	lure	n/a	n/a	n/a	1
291.055	0.416658424	BYSTANDER	lure	n/a	n/a	n/a	1
291.472	0.533267776	LANDOWNER	lure	n/a	n/a	n/a	1
292.005	0.600055564	JAWBREAKER	lure	n/a	n/a	n/a	1
292.605	0.616596824	MATTER	short	n/a	n/a	n/a	1
293.222	0.399995294	BONEHEAD	lure	n/a	n/a	n/a	1
293.622	0.566658573	IDEOLOGIST	lure	n/a	n/a	n/a	1
294.189	0.34999704	HAYWIRE	lure	n/a	n/a	n/a	1
294.539	0.51914816	LATITUDE	lure	n/a	n/a	n/a	1
295.058	0.34750678	BASILICA	lure	n/a	n/a	n/a	1
295.405	0.633380397	EXORCISM	lure	n/a	n/a	n/a	1
296.039	0.516597128	WINDFALL	lure	n/a	n/a	n/a	1
296.555	0.733380425	SUBSIDENCE	lure	n/a	n/a	n/a	1
297.289	0.716665581	SKINNER	lure	n/a	n/a	n/a	1
298.005	0.683258242	WORKMEN	lure	n/a	n/a	n/a	1
298.689	0.699996092	VIDEOTAPE	lure	n/a	n/a	n/a	1
299.389	0.699991593	SOAPSTONE	lure	n/a	n/a	n/a	1
300.089	0.633321233	SUNBURN	lure	n/a	n/a	n/a	1
300.722	0.73332278	BAGGAGE	lure	n/a	n/a	n/a	1
301.455	2.016640235	WAGON	long	n/a	n/a	n/a	1
303.472	0.633322596	GUZZLER	lure	n/a	n/a	n/a	1
304.105	0.349995988	JOSH	lure	n/a	n/a	n/a	1
304.455	0.716657924	PREMIUM	lure	n/a	n/a	n/a	1
305.172	0.650037849	MANAGEMENT	lure	n/a	n/a	n/a	1
305.822	0.75154321	PIANIST	lure	n/a	n/a	n/a	1
306.573	0.752572	EMPLOYMENT	lure	n/a	n/a	n/a	1
307.326	0.712476374	GAVEL	lure	n/a	n/a	n/a	1
308.038	0.366719543	ADVISEMENT	lure	n/a	n/a	n/a	1
308.405	0.699932135	NIGHTCLUB	lure	n/a	n/a	n/a	1
309.105	0.433382446	AUTONOMY	lure	n/a	n/a	n/a	1
309.538	0.616601197	RIDGE	short	n/a	n/a	n/a	1
310.155	0.333387198	SPACESUIT	lure	n/a	n/a	n/a	1
310.488	0.516661081	MYSTERY	lure	n/a	n/a	n/a	1
311.005	0.533266539	ENERGY	lure	n/a	n/a	n/a	1
311.538	0.616652526	JUDO	lure	n/a	n/a	n/a	1
312.155	0.549999084	SUSPECT	lure	n/a	n/a	n/a	1
312.705	0.516659104	ANTIPATHY	lure	n/a	n/a	n/a	1
313.222	0.333327867	LEUKEMIA	lure	n/a	n/a	n/a	1
313.555	0.366662744	SENSOR	lure	n/a	n/a	n/a	1
313.922	0.583322613	COWHIDE	lure	n/a	n/a	n/a	1
314.505	0.733324913	MASCARA	lure	n/a	n/a	n/a	1
315.238	0.616654776	NERVE	lure	n/a	n/a	n/a	1
315.855	0.749993399	WASHCLOTH	lure	n/a	n/a	n/a	1
316.605	0.766658023	CUISINE	lure	n/a	n/a	n/a	1
317.372	0.433469898	FINALITY	lure	n/a	n/a	n/a	1
317.805	1.016566061	BLUEBERRY	fruit	569	2	2	1
318.822	0.349935075	TOMBOY	lure	n/a	n/a	n/a	1
319.172	0.383387099	CLERK	lure	n/a	n/a	n/a	1
319.555	0.383326751	SCRIPTURE	lure	n/a	n/a	n/a	1
319.938	0.583269967	ESPRESSO	lure	n/a	n/a	n/a	1
320.522	0.399992833	HEARTACHE	lure	n/a	n/a	n/a	1
320.922	0.483328107	CORVETTE	lure	n/a	n/a	n/a	1
321.405	0.683385069	CONVENT	lure	n/a	n/a	n/a	1
322.088	0.55003378	HEIRLOOM	lure	n/a	n/a	n/a	1
322.638	0.649885562	SOCIETY	lure	n/a	n/a	n/a	1
323.288	0.44999116	HEADWIND	lure	n/a	n/a	n/a	1
323.738	0.683327929	JUDGESHIP	lure	n/a	n/a	n/a	1
324.422	0.716717819	EPILEPSY	lure	n/a	n/a	n/a	1
325.138	0.583320347	SHERBET	lure	n/a	n/a	n/a	1
325.722	0.666658003	ASYLUM	lure	n/a	n/a	n/a	1
326.388	2.016584776	CHISEL	long	n/a	n/a	n/a	1
328.405	0.66665706	EXAMPLE	lure	n/a	n/a	n/a	1
329.071	0.466658469	ART	lure	n/a	n/a	n/a	1
329.538	0.600007477	KNOWLEDGE	lure	n/a	n/a	n/a	1
330.138	0.683306658	OPERA	lure	n/a	n/a	n/a	1
330.821	0.433387109	KIDNEY	lure	n/a	n/a	n/a	1
331.255	0.716601157	SINGLETON	lure	n/a	n/a	n/a	1
331.971	0.683375433	COMPLAINT	lure	n/a	n/a	n/a	1
332.655	0.383276385	ANTHEM	lure	n/a	n/a	n/a	1
333.038	0.666657398	PEn/aCE	lure	n/a	n/a	n/a	1
333.705	0.349992767	LEAKAGE	lure	n/a	n/a	n/a	1
334.055	0.633326604	AIRSPACE	lure	n/a	n/a	n/a	1
334.688	0.616659738	PANEL	short	n/a	n/a	n/a	1
335.305	0.650048938	COMEDIAN	lure	n/a	n/a	n/a	1
335.955	0.416660254	BEANPOLE	lure	n/a	n/a	n/a	1
336.371	0.433268805	PROJECTION	lure	n/a	n/a	n/a	1
336.805	0.616657284	PENNY	lure	n/a	n/a	n/a	1
337.421	0.516715835	SPECTER	lure	n/a	n/a	n/a	1
337.938	0.583268466	GOURMET	lure	n/a	n/a	n/a	1
338.521	0.566659511	MOM	lure	n/a	n/a	n/a	1
339.088	0.699990696	FORTUNE	lure	n/a	n/a	n/a	1
339.788	0.666711303	FUTURISM	lure	n/a	n/a	n/a	1
340.455	0.466605383	ARROWHEAD	lure	n/a	n/a	n/a	1
340.921	0.516658502	LOOPHOLE	lure	n/a	n/a	n/a	1
341.438	0.466660686	SIMPLETON	lure	n/a	n/a	n/a	1
341.905	0.583332152	KERCHIEF	lure	n/a	n/a	n/a	1
342.488	0.766650392	SALESMEN	lure	n/a	n/a	n/a	1
343.255	2.016637759	LABEL	long	n/a	n/a	n/a	1
345.271	0.599992522	KOALA	lure	n/a	n/a	n/a	1
345.871	0.633326111	FIREBUG	lure	n/a	n/a	n/a	1
346.505	0.633322214	CANTEEN	lure	n/a	n/a	n/a	1
347.138	0.46666101	PUMICE	lure	n/a	n/a	n/a	1
347.605	0.683324561	OUNCE	lure	n/a	n/a	n/a	1
348.288	0.449994197	HEARTBREAK	lure	n/a	n/a	n/a	1
348.738	0.366661055	SHARPENER	lure	n/a	n/a	n/a	1
349.105	0.566657283	PILLOW	lure	n/a	n/a	n/a	1
349.671	0.649989866	WORKROOM	lure	n/a	n/a	n/a	1
350.321	0.649991307	RESIDUE	lure	n/a	n/a	n/a	1
350.971	0.499995658	TUNDRA	lure	n/a	n/a	n/a	1
351.471	0.616655987	CYCLONE	short	n/a	n/a	n/a	1
352.088	0.699989084	TUITION	lure	n/a	n/a	n/a	1
352.788	0.516659133	HUBBY	lure	n/a	n/a	n/a	1
353.304	0.416662297	CONFIDENCE	lure	n/a	n/a	n/a	1
353.721	0.499994502	CAB	lure	n/a	n/a	n/a	1
354.221	0.416662517	TUNAFISH	lure	n/a	n/a	n/a	1
354.638	0.716656029	DRAWER	lure	n/a	n/a	n/a	1
355.354	0.366661739	GASKET	lure	n/a	n/a	n/a	1
355.721	0.716655823	STUPIDITY	lure	n/a	n/a	n/a	1
356.438	0.60004742	YELLER	lure	n/a	n/a	n/a	1
357.038	0.549999717	TOOLMAKER	lure	n/a	n/a	n/a	1
357.588	0.366599433	FOODSTUFF	lure	n/a	n/a	n/a	1
357.954	0.684277105	INSISTENCE	lure	n/a	n/a	n/a	1
358.639	0.73236995	NEWSPRINT	lure	n/a	n/a	n/a	1
359.371	0.466657316	EYELET	lure	n/a	n/a	n/a	1
359.838	0.61666178	ROCK	short	n/a	n/a	n/a	1
360.454	0.366661009	STEALER	lure	n/a	n/a	n/a	1
360.821	0.383326977	OPTIMALITY	lure	n/a	n/a	n/a	1
361.204	0.366660964	SURFER	lure	n/a	n/a	n/a	1
361.571	0.349996636	FLOOZY	lure	n/a	n/a	n/a	1
361.921	0.549986551	SPINDLE	lure	n/a	n/a	n/a	1
362.471	0.702159153	EVOCATION	lure	n/a	n/a	n/a	1
363.173	0.564495309	POLYGAMY	lure	n/a	n/a	n/a	1
363.738	0.749988132	CONDENSER	lure	n/a	n/a	n/a	1
364.488	0.499996355	BARBELL	lure	n/a	n/a	n/a	1
364.988	0.683319667	FOLLY	lure	n/a	n/a	n/a	1
365.671	0.549994996	CATACLYSM	lure	n/a	n/a	n/a	1
366.221	0.533327327	HECK	lure	n/a	n/a	n/a	1
366.754	0.466658333	LONGSHIP	lure	n/a	n/a	n/a	1
367.221	0.316657603	AGGRESSOR	lure	n/a	n/a	n/a	1
367.538	0.349995568	EXPONENT	lure	n/a	n/a	n/a	1
367.888	2.016644369	GIFT	long	n/a	n/a	n/a	1
369.904	0.733321989	AUTOPSY	lure	n/a	n/a	n/a	1
370.638	0.449992719	GROUNDHOG	lure	n/a	n/a	n/a	1
371.088	0.583325122	FACILITY	lure	n/a	n/a	n/a	1
371.671	0.449993772	ABERRATION	lure	n/a	n/a	n/a	1
372.121	0.516661021	OUTRIGGER	lure	n/a	n/a	n/a	1
372.638	0.716653469	CELLAR	lure	n/a	n/a	n/a	1
373.354	0.333332312	MOUTHWASH	lure	n/a	n/a	n/a	1
373.688	0.666656799	TALCUM	lure	n/a	n/a	n/a	1
374.354	0.466660583	DETECTION	lure	n/a	n/a	n/a	1
374.821	0.649991141	ASTRONOMY	lure	n/a	n/a	n/a	1
375.471	0.499993014	HERON	lure	n/a	n/a	n/a	1
375.971	1.016652098	BLUEBERRY	fruit	556	2	2	1
376.987	0.716656813	SCIENTIST	lure	n/a	n/a	n/a	1
377.704	0.433328664	DISPENSARY	lure	n/a	n/a	n/a	1
378.137	0.399994698	FIREDOG	lure	n/a	n/a	n/a	1
378.537	0.683324739	HEALTH	lure	n/a	n/a	n/a	1
379.221	0.383326322	SPECIALITY	lure	n/a	n/a	n/a	1
379.604	0.549989056	MALICE	lure	n/a	n/a	n/a	1
380.154	0.5166627	ALOE	lure	n/a	n/a	n/a	1
380.671	0.566660109	ZOOLOGY	lure	n/a	n/a	n/a	1
381.237	0.333326168	HARPER	lure	n/a	n/a	n/a	1
381.571	0.349997055	PRIMER	lure	n/a	n/a	n/a	1
381.921	0.69998927	CHARMER	lure	n/a	n/a	n/a	1
382.621	0.749991621	PETUNIA	lure	n/a	n/a	n/a	1
383.371	0.53332366	VISOR	lure	n/a	n/a	n/a	1
383.904	0.5666601	IMMATURITY	lure	n/a	n/a	n/a	1
384.471	0.616659067	ISLAND	short	n/a	n/a	n/a	1
385.087	0.533324231	LANDFALL	lure	n/a	n/a	n/a	1
385.621	0.349990861	QUOTA	lure	n/a	n/a	n/a	1
385.971	0.466666744	JOCKEY	lure	n/a	n/a	n/a	1
386.437	0.51665749	FIREARM	lure	n/a	n/a	n/a	1
386.954	0.333328491	KICKOFF	lure	n/a	n/a	n/a	1
387.287	0.449993559	TRAITOR	lure	n/a	n/a	n/a	1
387.737	0.416663329	MILE	lure	n/a	n/a	n/a	1
388.154	0.649990647	RIFLEMAN	lure	n/a	n/a	n/a	1
388.804	0.433326278	PROTEST	lure	n/a	n/a	n/a	1
389.237	0.366663598	BACKSTROKE	lure	n/a	n/a	n/a	1
389.604	0.388051578	TOAD	lure	n/a	n/a	n/a	1
389.992	0.378603079	SUPERMAN	lure	n/a	n/a	n/a	1
390.371	0.349995569	INDICTMENT	lure	n/a	n/a	n/a	1
390.721	0.549993153	TRUSTEE	lure	n/a	n/a	n/a	1
391.271	0.333326902	PARKWAY	lure	n/a	n/a	n/a	1
391.604	0.416663296	IMPORTER	lure	n/a	n/a	n/a	1
392.021	0.433325146	CONFECTION	lure	n/a	n/a	n/a	1
392.454	1.016655684	PINEAPPLE	fruit	713	2	2	1
393.471	0.4999908	TSUNAMI	lure	n/a	n/a	n/a	1
393.971	0.66665767	BONSAI	lure	n/a	n/a	n/a	1
394.637	0.583322285	HOTBED	lure	n/a	n/a	n/a	1
395.221	0.616663073	MAIDENHEAD	lure	n/a	n/a	n/a	1
395.837	0.671040602	INDULGENCE	lure	n/a	n/a	n/a	1
396.508	0.412276198	SNACK	lure	n/a	n/a	n/a	1
396.921	0.599990528	BRAINCHILD	lure	n/a	n/a	n/a	1
397.521	0.549988123	GUNSMITH	lure	n/a	n/a	n/a	1
398.071	0.433332978	DRAGNET	lure	n/a	n/a	n/a	1
398.504	0.499990917	PHARMACY	lure	n/a	n/a	n/a	1
399.004	0.449995928	PLEASANTRY	lure	n/a	n/a	n/a	1
399.454	0.350046166	OBJECTION	lure	n/a	n/a	n/a	1
399.804	0.333278177	CORNFLOWER	lure	n/a	n/a	n/a	1
400.137	0.583324549	ARCHERY	lure	n/a	n/a	n/a	1
400.721	0.616658449	ORNAMENT	short	n/a	n/a	n/a	1
401.337	0.616659059	SEACOAST	lure	n/a	n/a	n/a	1
401.954	0.483326989	PORTAL	lure	n/a	n/a	n/a	1
402.437	0.733320861	CRAYFISH	lure	n/a	n/a	n/a	1
403.17	0.616658318	TERROR	lure	n/a	n/a	n/a	1
403.787	0.649991678	TRANSITION	lure	n/a	n/a	n/a	1
404.437	0.416662926	PASTEBOARD	lure	n/a	n/a	n/a	1
404.854	0.599990615	STOREFRONT	lure	n/a	n/a	n/a	1
405.454	0.46665567	SANITY	lure	n/a	n/a	n/a	1
405.92	0.416665481	BIGHEAD	lure	n/a	n/a	n/a	1
406.337	0.333330817	SUBSOIL	lure	n/a	n/a	n/a	1
406.67	0.383323938	STRONGHOLD	lure	n/a	n/a	n/a	1
407.054	0.483327686	DEADWOOD	lure	n/a	n/a	n/a	1
407.537	0.399992793	PETROLEUM	lure	n/a	n/a	n/a	1
407.937	0.633322755	YARN	lure	n/a	n/a	n/a	1
408.57	0.566664719	SPOKESMAN	lure	n/a	n/a	n/a	1
409.137	1.018159284	STRAWBERRY	fruit	797	2	2	1
410.155	0.73181712	EGGNOG	lure	n/a	n/a	n/a	1
410.887	0.366657801	SIMILARITY	lure	n/a	n/a	n/a	1
411.254	0.649987941	ORGANISM	lure	n/a	n/a	n/a	1
411.904	0.516663612	EEL	lure	n/a	n/a	n/a	1
412.42	0.649989163	SPRITE	lure	n/a	n/a	n/a	1
413.07	0.349994489	TROMBONE	lure	n/a	n/a	n/a	1
413.42	0.733324893	CONDUCTOR	lure	n/a	n/a	n/a	1
414.154	0.74998796	CAR	lure	n/a	n/a	n/a	1
414.904	0.566662055	WITCH	lure	n/a	n/a	n/a	1
415.47	0.64999297	AMMO	lure	n/a	n/a	n/a	1
416.12	0.699988726	THEATER	lure	n/a	n/a	n/a	1
416.82	0.752193098	SPOONFUL	lure	n/a	n/a	n/a	1
417.572	1.015577265	LIME	fruit	n/a	n/a	2	0
418.588	0.598863887	AUTOMATION	lure	n/a	n/a	n/a	1
419.187	0.683323564	MILITARISM	lure	n/a	n/a	n/a	1
419.87	0.483327335	MANHOLE	lure	n/a	n/a	n/a	1
420.354	0.616656685	WHOOPEE	lure	n/a	n/a	n/a	1
420.97	0.683327025	PHENOMENON	lure	n/a	n/a	n/a	1
421.654	0.5874038	DEMERIT	lure	n/a	n/a	n/a	1
422.241	0.566568956	ENCAMPMENT	lure	n/a	n/a	n/a	1
422.808	0.481564374	RADIATOR	lure	n/a	n/a	n/a	1
423.289	0.514427808	LOOKOUT	lure	n/a	n/a	n/a	1
423.804	0.366664732	STREAMER	lure	n/a	n/a	n/a	1
424.17	0.566658468	MIDRIFF	lure	n/a	n/a	n/a	1
424.737	0.649989324	ABSORBENCY	lure	n/a	n/a	n/a	1
425.387	0.616656279	CORN	lure	n/a	n/a	n/a	1
426.003	0.649993607	PLANK	short	n/a	n/a	n/a	1
426.653	0.318510794	UPKEEP	lure	n/a	n/a	n/a	1
426.972	0.481479278	DISCRETION	lure	n/a	n/a	n/a	1
427.453	0.683326869	CONIFER	lure	n/a	n/a	n/a	1
428.137	0.583324157	REPRISAL	lure	n/a	n/a	n/a	1
428.72	0.749988607	COCKER	lure	n/a	n/a	n/a	1
429.47	0.683323331	IRRIGATION	lure	n/a	n/a	n/a	1
430.153	0.504466621	ANTICLIMAX	lure	n/a	n/a	n/a	1
430.658	0.328852013	COMET	lure	n/a	n/a	n/a	1
430.987	0.449993749	DEFLECTION	lure	n/a	n/a	n/a	1
431.437	0.38333296	OUTFIT	lure	n/a	n/a	n/a	1
431.82	0.749986241	SOOTHSAYER	lure	n/a	n/a	n/a	1
432.57	0.349997634	ROD	lure	n/a	n/a	n/a	1
432.92	0.684169244	SCALLION	lure	n/a	n/a	n/a	1
433.604	0.699144554	JAG	lure	n/a	n/a	n/a	1
434.303	1.016651278	CANTELOUPE	fruit	999	2	2	1
435.32	0.449997373	MEDLEY	lure	n/a	n/a	n/a	1
435.77	0.499990776	INCUBATION	lure	n/a	n/a	n/a	1
436.27	0.599994102	TEAMMATE	lure	n/a	n/a	n/a	1
436.87	0.749990106	OUTAGE	lure	n/a	n/a	n/a	1
437.62	0.433322584	ABSTINENCE	lure	n/a	n/a	n/a	1
438.053	0.616659134	SONGBOOK	lure	n/a	n/a	n/a	1
438.67	0.383326395	TUSK	lure	n/a	n/a	n/a	1
439.053	0.716662555	PERSONAGE	lure	n/a	n/a	n/a	1
439.77	0.599993442	HAYFORK	lure	n/a	n/a	n/a	1
440.37	0.59998558	WATERSIDE	lure	n/a	n/a	n/a	1
440.97	0.649986397	JURIST	lure	n/a	n/a	n/a	1
441.62	0.483330836	BALLPLAYER	lure	n/a	n/a	n/a	1
442.103	0.537975555	STEPFATHER	lure	n/a	n/a	n/a	1
442.641	2.014600363	PHOTO	long	n/a	n/a	n/a	1
444.656	0.380716868	WOOD	lure	n/a	n/a	n/a	1
445.037	0.416664793	PAINTBOX	lure	n/a	n/a	n/a	1
445.453	0.483322941	DIVERSITY	lure	n/a	n/a	n/a	1
445.937	0.416661008	TRAILER	lure	n/a	n/a	n/a	1
446.353	0.549987894	TIGHTROPE	lure	n/a	n/a	n/a	1
446.903	0.383336985	ANTAGONIST	lure	n/a	n/a	n/a	1
447.287	0.449989609	SUNDOWN	lure	n/a	n/a	n/a	1
447.737	0.483331818	MARSUPIAL	lure	n/a	n/a	n/a	1
448.22	0.666649537	DISCLAIMER	lure	n/a	n/a	n/a	1
448.887	0.716662106	APPRAISAL	lure	n/a	n/a	n/a	1
449.603	0.466656689	CLIPPER	lure	n/a	n/a	n/a	1
450.07	0.416664397	HEADSTAND	lure	n/a	n/a	n/a	1
450.486	2.016639686	SPEAR	long	n/a	n/a	n/a	1
452.503	0.616656502	FIESTA	lure	n/a	n/a	n/a	1
453.12	0.433325266	OCEANSIDE	lure	n/a	n/a	n/a	1
453.553	0.499996132	FULLBACK	lure	n/a	n/a	n/a	1
454.053	0.683325764	DELIVERY	lure	n/a	n/a	n/a	1
454.736	0.349991202	GEESE	lure	n/a	n/a	n/a	1
455.086	0.516662259	POPULATION	lure	n/a	n/a	n/a	1
455.603	0.599988683	KEYPUNCH	lure	n/a	n/a	n/a	1
456.203	0.383327533	TRAVELLER	lure	n/a	n/a	n/a	1
456.586	0.316662422	ENTIRETY	lure	n/a	n/a	n/a	1
456.903	0.616658179	VISAGE	lure	n/a	n/a	n/a	1
457.52	0.733321729	POLYGON	lure	n/a	n/a	n/a	1
458.253	0.683322889	MEDITATION	lure	n/a	n/a	n/a	1
458.936	0.366666492	MAXIM	lure	n/a	n/a	n/a	1
459.303	0.433329065	WOMANIZER	lure	n/a	n/a	n/a	1
459.736	0.699982428	BROTHER	lure	n/a	n/a	n/a	1
460.436	0.499996938	FRAILTY	lure	n/a	n/a	n/a	1
460.936	0.599993225	CONSORT	lure	n/a	n/a	n/a	1
461.536	0.79998559	BANQUET	lure	n/a	n/a	n/a	1
462.336	0.716661143	TRIPLET	lure	n/a	n/a	n/a	1
463.053	0.683321771	CATHEDRAL	lure	n/a	n/a	n/a	1
463.736	0.41665653	MICROSCOPY	lure	n/a	n/a	n/a	1
464.153	0.366669162	COMPLETION	lure	n/a	n/a	n/a	1
464.52	0.383328121	CONTENDER	lure	n/a	n/a	n/a	1
464.903	n/a	EXPIRATION	lure	n/a	n/a	n/a	1